{
    "resourceType": "Bundle",
    "id": "notification-admit-transaction",
    "identifier": {
        "system": "https://fhir.mytrust.nhs.uk/Id/RCB/PAS",
        "value": "1391320453338055"
    },
    "type": "transaction",
    "entry": [
        {
            "fullUrl": "urn:oid:87ea780f-7bb4-43a4-beba-caa5197e763a",
            "resource": {
                "resourceType": "MessageHeader",
                "event": {
                    "code": "notification-admit",
                    "display": "notification-admit"
                },
                "destination": [
                    {
                        "name": "ROUTE",
                        "target": {
                            "display": "ROUTE"
                        },
                        "endpoint": "ROUTE"
                    }
                ],
                "sender": {
                    "identifier": {
                        "system": "https://fhir.nhs.uk/Id/ods-organization-code",
                        "value": "RCB"
                    },
                    "display": "RCB"
                },
                "timestamp": "2010-10-10T14:18:00.000+01:00",
                "source": {
                    "name": "PAS",
                    "endpoint": "PAS"
                },
                "focus": [
                    {
                        "reference": "urn:oid:28390ec4-1809-402d-abfc-b60c94f5bad0"
                    },
                    {
                        "reference": "urn:oid:d7a76f2b-0a95-4bf3-86fb-2705380ea3ca"
                    },
                    {
                        "reference": "urn:oid:27c02a78-96b4-4fcb-ae09-0840716a90a9"
                    }
                ]
            },
            "request": {
                "method": "POST",
                "url": "MessageHeader"
            }
        },
        {
            "fullUrl": "urn:oid:28390ec4-1809-402d-abfc-b60c94f5bad0",
            "resource": {
                "resourceType": "Encounter",
                "identifier": [
                    {
                        "system": "http://terminology.hl7.org/CodeSystem/v2-0203",
                        "value": "2139"
                    }
                ],
                "status": "in-progress",
                "class": {
                    "system": "http://hl7.org/fhir/v3/ActCode",
                    "code": "IMP",
                    "display": "inpatient encounter"
                },
                "type": [
                    {
                        "coding": [
                            {
                                "system": "https://fhir.nhs.uk/R4/CodeSystem/UKCore-AdmissionMethod",
                                "code": "13"
                            }
                        ]
                    },
                    {
                        "coding": [
                            {
                                "system": "https://fhir.nhs.uk/STU3/CodeSystem/DCH-Specialty-1",
                                "code": "300"
                            }
                        ]
                    }
                ],
                "subject": {
                    "reference": "urn:oid:b915db16-84a1-4a47-8e3f-5b9edebd8575"
                },
                "participant": [
                    {
                        "type": [
                            {
                                "coding": [
                                    {
                                        "system": "http://hl7.org/fhir/v3/ParticipationType",
                                        "code": "ATND",
                                        "display": "attender"
                                    }
                                ]
                            }
                        ],
                        "individual": {
                            "identifier": {
                                "system": "https://fhir.hl7.org.uk/Id/gmc-number",
                                "value": "C3456789"
                            },
                            "display": "Dr Samuel Darwin"
                        }
                    },
                    {
                        "type": [
                            {
                                "coding": [
                                    {
                                        "system": "http://hl7.org/fhir/v3/ParticipationType",
                                        "code": "CON",
                                        "display": "consultant"
                                    }
                                ]
                            }
                        ],
                        "individual": {
                            "identifier": {
                                "system": "https://fhir.hl7.org.uk/Id/gmc-number",
                                "value": "C3456789"
                            },
                            "display": "Dr Samuel Darwin"
                        }
                    },
                    {
                        "type": [
                            {
                                "coding": [
                                    {
                                        "system": "http://hl7.org/fhir/v3/ParticipationType",
                                        "code": "REF",
                                        "display": "referrer"
                                    }
                                ]
                            }
                        ],
                        "individual": {
                            "identifier": {
                                "system": "https://fhir.hl7.org.uk/Id/gmc-number",
                                "value": "G5612908"
                            },
                            "display": "Dr Gregory Townley"
                        }
                    }
                ],
                "period": {
                    "start": "2010-10-20T17:16:00+01:00"
                },
                "hospitalization": {
                    "admitSource": {
                        "coding": [
                            {
                                "system": "https://fhir.nhs.uk/R4/CodeSystem/UKCore-SourceOfAdmission",
                                "code": "19"
                            }
                        ]
                    }
                },
                "location": [
                    {
                        "location": {
                            "reference": "urn:oid:7fe49ce2-6aba-4630-9bd2-f89244c9b799",
                            "display": "OBS1"
                        },
                        "status": "active"
                    }
                ]
            },
            "request": {
                "method": "POST",
                "url": "Encounter",
                "ifNoneExist": "Encounter?identifier=http://terminology.hl7.org/CodeSystem/v2-0203|2139"
            }
        },
        {
            "fullUrl": "urn:oid:b915db16-84a1-4a47-8e3f-5b9edebd8575",
            "resource": {
                "resourceType": "Patient",
                "identifier": [
                    {
                        "extension": [
                            {
                                "url": "https://fhir.hl7.org.uk/STU3/StructureDefinition/Extension-CareConnect-NHSNumberVerificationStatus-1",
                                "valueCodeableConcept": {
                                    "coding": [
                                        {
                                            "system": "https://fhir.hl7.org.uk/STU3/CodeSystem/CareConnect-NHSNumberVerificationStatus-1",
                                            "code": "01"
                                        }
                                    ]
                                }
                            }
                        ],
                        "system": "https://fhir.nhs.uk/Id/nhs-number",
                        "value": "3333333333"
                    }
                ],
                "name": [
                    {
                        "family": "SMITH",
                        "given": [
                            "FREDRICA"
                        ],
                        "prefix": [
                            "MRS"
                        ]
                    }
                ],
                "telecom": [
                    {
                        "system": "phone",
                        "value": "+441234567890",
                        "use": "home"
                    }
                ],
                "gender": "female",
                "birthDate": "1965-12-13",
                "address": [
                    {
                        "use": "home",
                        "city": "MALTON",
                        "district": "NORTH YORKSHIRE",
                        "postalCode": "YO32 5TT"
                    }
                ],
                "contact": [
                    {
                        "name": {
                            "family": "SMITH",
                            "given": [
                                "ALBERT"
                            ],
                            "prefix": [
                                "MR"
                            ]
                        },
                        "address": {
                            "use": "home",
                            "city": "MALTON",
                            "district": "NORTH YORKSHIRE",
                            "postalCode": "YO32 5TT"
                        }
                    }
                ],
                "generalPractitioner": [
                    {
                        "identifier": {
                            "system": "https://fhir.hl7.org.uk/Id/gmc-number",
                            "value": "G5612908"
                        },
                        "display": "Dr Gregory Townley"
                    }
                ],
                "managingOrganization": {
                    "identifier": {
                        "system": "https://fhir.nhs.uk/Id/ods-organization-code",
                        "value": "Y06601"
                    },
                    "display": "MALTON GP PRACTICE"
                }
            },
            "request": {
                "method": "POST",
                "url": "Patient",
                "ifNoneExist": "Patient?identifier=https://fhir.nhs.uk/Id/nhs-number|3333333333"
            }
        },
        {
            "fullUrl": "urn:oid:7fe49ce2-6aba-4630-9bd2-f89244c9b799",
            "resource": {
                "resourceType": "Location",
                "identifier": [
                    {
                        "system": "https://fhir.myepr.co.uk/Id/Ward",
                        "value": "OBS1"
                    }
                ],
                "name": "OBS1",
                "managingOrganization": {
                    "identifier": {
                        "system": "https://fhir.nhs.uk/Id/ods-organization-code",
                        "value": "RCB"
                    }
                },
                "partOf": {
                    "identifier": {
                        "system": "https://fhir.nhs.uk/Id/ods-site-code",
                        "value": "RCB55"
                    }
                }
            },
            "request": {
                "method": "POST",
                "url": "Location",
                "ifNoneExist": "Location?identifier=https://fhir.myepr.co.uk/Id/Ward|OBS1"
            }
        },
        {
            "fullUrl": "urn:oid:d7a76f2b-0a95-4bf3-86fb-2705380ea3ca",
            "resource": {
                "resourceType": "Condition",
                "identifier": [
                    {
                        "system": "http://terminology.hl7.org/CodeSystem/v2-0203",
                        "value": "2139-N39.3"
                    }
                ],
                "clinicalStatus": "active",
                "code": {
                    "coding": [
                        {
                            "system": "http://hl7.org/fhir/sid/icd-10",
                            "code": "N39.3",
                            "display": "Stress Incontinence"
                        }
                    ]
                },
                "subject": {
                    "reference": "urn:oid:b915db16-84a1-4a47-8e3f-5b9edebd8575"
                },
                "context": {
                    "reference": "urn:oid:28390ec4-1809-402d-abfc-b60c94f5bad0"
                },
                "onsetDateTime": "2010-10-09T09:00:00+01:00",
                "asserter": {
                    "identifier": {
                        "system": "https://fhir.hl7.org.uk/Id/gmc-number",
                        "value": "C3456789"
                    },
                    "display": "Dr Samuel Darwin"
                }
            },
            "request": {
                "method": "POST",
                "url": "Condition",
                "ifNoneExist": "Condition?identifier=http://terminology.hl7.org/CodeSystem/v2-0203|2139-N39.3"
            }
        },
        {
            "fullUrl": "urn:oid:27c02a78-96b4-4fcb-ae09-0840716a90a9",
            "resource": {
                "resourceType": "Procedure",
                "identifier": [
                    {
                        "system": "http://terminology.hl7.org/CodeSystem/v2-0203",
                        "value": "2139-ZZS4"
                    }
                ],
                "status": "completed",
                "code": {
                    "coding": [
                        {
                            "system": "https://fhir.nhs.uk/Id/opcs-4",
                            "code": "ZZS4",
                            "display": "Colonic examination"
                        }
                    ]
                },
                "subject": {
                    "reference": "urn:oid:b915db16-84a1-4a47-8e3f-5b9edebd8575"
                },
                "context": {
                    "reference": "urn:oid:28390ec4-1809-402d-abfc-b60c94f5bad0"
                },
                "performedDateTime": "2010-10-20T20:56:00+01:00",
                "performer": [
                    {
                        "actor": {
                            "identifier": {
                                "system": "https://fhir.hl7.org.uk/Id/gmc-number",
                                "value": "C3456789"
                            },
                            "display": "Dr Samuel Darwin"
                        }
                    }
                ]
            },
            "request": {
                "method": "POST",
                "url": "Procedure",
                "ifNoneExist": "Procedure?identifier=http://terminology.hl7.org/CodeSystem/v2-0203|2139-ZZS4"
            }
        }
    ]
}