<?xml version="1.0" encoding="UTF-8"?>
<Bundle xmlns="http://hl7.org/fhir">
    <id value="ambulance-request"/>
    <meta>
        <lastUpdated value="2015-02-12T21:00:00+00:00"/>
        <profile value="https://fhir.nhs.uk/STU3/StructureDefinition/ITK-Document-Bundle-1"/>
    </meta>
    <identifier>
        <system value="https://tools.ietf.org/html/rfc4122"/>
        <value value="e3035910-045c-4329-a0f5-d8fa8be430df"/>
    </identifier>
    <type value="document"/>
    <!--Emergency Care Composition-->
    <entry>
        <fullUrl value="urn:uuid:9009fdb0-e03c-498e-ad94-3b5a6d92ff4e"/>
        <resource>
            <!--A resource carrying a set of healthcare-related information about the patient-->
            <Composition>
                <id value="9009fdb0-e03c-498e-ad94-3b5a6d92ff4e"/>
                <meta>
                    <profile value="https://fhir.nhs.uk/STU3/StructureDefinition/CareConnect-ITK-ECD-Composition-1"/>
                </meta>
                <!-- Extension to carry details of the Correspondence Care Setting Type. -->
                <extension url="https://fhir.hl7.org.uk/STU3/StructureDefinition/Extension-CareConnect-CareSettingType-1">
                    <valueCodeableConcept>
                        <coding>
                            <system value="http://snomed.info/sct"/>
                            <code value="394576009"/>
                            <display value="Accident &amp; emergency"/>
                        </coding>
                    </valueCodeableConcept>
                </extension>
                <identifier>
                    <system value="https://tools.ietf.org/html/rfc4122"/>
                    <value value="62edf674-8722-44b4-9557-4e1b6d68c1fe"/>
                </identifier>
                <!--The workflow/clinical status of this composition. 
 The status is a marker for the clinical standing of the document.-->
                <status value="final"/>
                <type>
                    <coding>
                        <system value="http://snomed.info/sct"/>
                        <code value="828801000000101" />
                        <display value="NHS 111 Final Ambulance Request"/>
                    </coding>
                </type>
                <!--Reference to the patient subject of the Composition-->
                <subject>
                    <reference value="urn:uuid:e228e899-f437-4927-b5c5-4786dce9dc43"/>
                </subject>
                <!--Reference to the clinical encounter or type of care this documentation is associated with.-->
                <encounter>
                    <reference value="urn:uuid:498f47b8-8ae1-48c5-9dc1-c5d3b9eb0ab7"/>
                </encounter>
                <!--The composition editing time, when the composition was last logically changed by the author.-->
                <date value="2011-05-11T20:00:00+00:00"/>
                <!--Identifies who is responsible for the information in the composition, 
 not necessarily who typed it in-->
                <author>
                    <reference value="urn:uuid:2a1022dd-a998-41a1-9941-71a413ee9172"/>
                </author>
                <title value="NHS 111 Final Ambulance Request"/>
                <!--Identifies the organization responsible for ongoing maintenance of and 
 access to the composition/document information.-->
                <custodian>
                    <reference value="urn:uuid:1a513009-ec68-4ee8-b279-4cad6545c6ec"/>
                </custodian>
                <section>
                    <title value="NHS 111 Final Ambulance Request"/>
                    <code>
                        <coding>
                            <system value="http://snomed.info/sct"/>
                            <code value="886791000000105"/>
                            <display value="Handover details"/>
                        </coding>
                    </code>
                    <text>
                        <status value="additional"/>
                        <div xmlns="http://www.w3.org/1999/xhtml">
                            No text section is provided in the Ambulance Request Message (it is all structured)
                        </div>
                    </text>
                    <entry>
                        <!-- Reference to Encounter -->
                        <reference value="urn:uuid:498f47b8-8ae1-48c5-9dc1-c5d3b9eb0ab7"/>
                    </entry>
                    <entry>
                        <!-- Reference to ReferralRequest -->
                        <reference value="urn:uuid:5885c08d-e1c9-43ff-ae1b-aedb38067908"/>
                    </entry>

                </section>
                <!-- Patient Demographics -->
                <section>
                    <title value="Patient Demographics"/>
                    <code>
                        <coding>
                            <system value="http://snomed.info/sct"/>
                            <code value="886731000000109"/>
                            <display value="Patient Demographics"/>
                        </coding>
                    </code>
                    <text>
                        <status value="additional"/>
                        <div xmlns="http://www.w3.org/1999/xhtml">
                            No text section is provided in the Ambulance Request Message (it is all structured)
                        </div>
                    </text>
                    <!--Reference to Patient-->
                    <entry>
                        <reference value="urn:uuid:e228e899-f437-4927-b5c5-4786dce9dc43"/>
                    </entry>
                </section>
                <!--Attendance details-->
                <section>
                    <title value="Consent for information sharing"/>
                    <code>
                        <coding>
                            <system value="http://snomed.info/sct"/>
                            <code value="887031000000108"/>
                            <display value="Consent for information sharing"/>
                        </coding>
                    </code>
                    <text>
                        <status value="additional"/>
                        <div xmlns="http://www.w3.org/1999/xhtml">
                            <table>
                            <tbody>
                                <tr>
                                    <th class="default">Permission to view outcome</th>
                                    <td>Permission to view obtained</td>
                                </tr>
                                <tr>
                                    <th class="default">Date obtained</th>
                                    <td>19-May-2011, 20:00</td>
                                </tr>
                                <tr>
                                    <th class="default">Date expires</th>
                                    <td>26-May-2011, 20:00</td>
                                </tr>
                            </tbody>
                            </table>
                        </div>
                    </text>
                    <entry>
                        <reference value="urn:uuid:679091ff-f273-40fc-a560-44594b6454eb"/>
                    </entry>
                </section>
                <!--Clinical narrative-->
                <section>
                    <title value="Presenting complaints or issues"/>
                    <code>
                        <coding>
                            <system value="http://snomed.info/sct"/>
                            <code value="886891000000102"/>
                            <display value="Presenting complaints or issues"/>
                        </coding>
                    </code>
                    <text>
                        <status value="additional"/>
                        <div xmlns="http://www.w3.org/1999/xhtml">
                            Patient has an insect bite.
                        </div>
                    </text>
                </section>
                <!--Contact for further information-->
                <section>
                    <title value="Case Summary"/>
                    <code>
                        <coding>
                            <system value="http://snomed.info/sct"/>
                            <code value="887181000000106"/>
                            <display value="Clinical summary "/>
                        </coding>
                    </code>
                    <text>
                        <status value="additional"/>
                        <div xmlns="http://www.w3.org/1999/xhtml">
                            Patient: Joe Bloggs Disposition: Go to the nearest Emergency Department within 4 hours.<br></br> 
                            Selected care service: Dx009 Pathways Assessment: An injury or other health problem was described.<br></br> 
                            The individual was described as breathing and conscious. <br></br>
                            Loss of at least a mugful of blood in the last 30 minutes was not described.<br></br> 
                            An illness or other health problem was described. - Insect Bite Fighting for breath was not described. <br></br>
                            A heart attack, chest/upper back pain, recent probable stroke, recent fit/seizure or suicide attempt was not described as the main call reason. <br></br>
                            New confusion, a diabetic hypo, a probable allergic reaction or successful resuscitation was not described as being the main call reason.<br></br> 
                            The individual was described as being warm to touch. <br></br>
                            An insect or spider bite or sting was described. - Tick Bite A sting/bite occurring within the last hour was not described. <br></br>
                            10 or more stings were not described. <br></br>
                            Nausea or vomiting since the sting was not described.<br></br> 
                            A sting involving the eyes or mouth was not described. <br></br>
                            A fever was not described. An insect still attached to the skin was described. <br></br>
                            A tick bite was described. Advice given: Remove any jewellery or tight clothing from the area. <br></br>
                            Antihistamine medication and creams help reduce swelling and itching.<br></br> 
                            They can be bought from pharmacies. <br></br>
                            Talk to the pharmacist for advice.<br></br> 
                            Follow the instructions in the pack. <br></br>
                            Unless advised not to, or they have already been given, paracetamol or ibuprofen can be used to relieve pain.<br></br> 
                            Follow the instructions in the pack. If in doubt ask a pharmacist.<br></br>
                        </div>
                    </text>
                </section>
                <section>
                    <title value="Patient Special Notes"/>
                    <code>
                        <coding>
                            <system value="http://snomed.info/sct"/>
                            <code value="886741000000100"/>
                            <display value="Special requirements"/>
                        </coding>
                    </code>
                    <text>
                        <status value="generated"/>
                        <div xmlns="http://www.w3.org/1999/xhtml">
                            Patient has history of violence towards health care professionals
                        </div>
                    </text>
                </section>
            </Composition>
        </resource>
    </entry>
    <!--Encounter Example 1-->
    <entry>
        <fullUrl value="urn:uuid:498f47b8-8ae1-48c5-9dc1-c5d3b9eb0ab7"/>
        <resource>
            <!--Encounter resource providing context for the discharge-->
            <Encounter>
                <id value="498f47b8-8ae1-48c5-9dc1-c5d3b9eb0ab7"/>
                <identifier>
                    <system value="https://fhir.medway111.nhs.uk/case-id"/>
                    <value value="LOCAL-HP54"/>
                </identifier>
                <identifier>
                    <system value="https://fhir.medway111.nhs.uk/case-reference"/>
                    <value value="NHS111-234567890"/>
                </identifier>
                <status value="finished"/>
                <class>
                    <system value="http://hl7.org/fhir/v3/ActCode"/>
                    <code value="AMB"/>
                    <display value="ambulatory"/>
                </class>
                <!--Specific type of encounter-->
                <type>
                    <coding>
                        <system value="http://snomed.info/sct"/>
                        <code value="401267002"/>
                        <display value="Telephone triage encounter"/>
                    </coding>
                </type>
                <!--Reference to the patient as the subject of the Encounter-->
                <subject>
                    <reference value="urn:uuid:e228e899-f437-4927-b5c5-4786dce9dc43"/>
                </subject>
                <participant>
                    <individual>
                        <reference value="urn:uuid:2a1022dd-a998-41a1-9941-71a413ee9172"/>
                        <display value="Mr Harry Parker" />
                    </individual>
                </participant>
                <serviceProvider>
                    <reference value="urn:uuid:1a513009-ec68-4ee8-b279-4cad6545c6ec"/>
                    <display value="NHS 111 Call Centre Chelmsford"/>
                </serviceProvider>
                <period>
                    <start value="2011-05-19T19:45:00+00:00"/>
                    <end value="2011-05-19T20:15:00+00:00"/>
                </period>
                <location>
                    <location><reference value="urn:uuid:6200f9ee-4d77-4d0f-8da1-b0bc4db0000d"/> </location>
                </location>
                <hospitalization>
                    <!--Category or kind of location after discharge-->
                    <dischargeDisposition>
                            <coding>
                                <system value="urn:oid:2.16.840.1.113883.2.1.3.2.4.17.414"/>
                                <code value="Dx009"/>
                                <display value="Blood loss - urgent care require" />
                            </coding>
                    </dischargeDisposition>
                </hospitalization>
            </Encounter>
        </resource>
    </entry>
    <entry>
        <fullUrl value="urn:uuid:e228e899-f437-4927-b5c5-4786dce9dc43"/>
        <resource>
            <Patient>
                <id value="e228e899-f437-4927-b5c5-4786dce9dc43"/>
                <meta>
                    <profile value="https://fhir.hl7.org.uk/STU3/StructureDefinition/CareConnect-Patient-1"/>
                </meta>
                <identifier>
                    <extension url="https://fhir.hl7.org.uk/STU3/StructureDefinition/Extension-CareConnect-NHSNumberVerificationStatus-1">
                        <valueCodeableConcept>
                            <coding>
                                <system value="https://fhir.hl7.org.uk/STU3/CodeSystem/CareConnect-NHSNumberVerificationStatus-1"/>
                                <code value="01"/>
                                <display value="Number present and verified"/>
                            </coding>
                        </valueCodeableConcept>
                    </extension>
                    <system value="https://fhir.nhs.uk/Id/nhs-number"/>
                    <value value="5689098431"/>
                </identifier>
                <name>
                    <use value="official"/>
                    <family value="Assington"/>
                    <given value="Jack"/>
                    <prefix value="Mr"/>
                </name>
                <gender value="male"/>
                <birthDate value="1976-01-08"/>
                <telecom>
                    <use value="home" />
                    <system value="phone"/>
                    <value value="0765478574"/>
                </telecom>
                <address>
                    <line value="7 Lime Avenue"/>
                    <city value="Chelmsford"/>
                    <district value="Essex"/>
                    <postalCode value="ME5 FS3"/>
                </address>
                <contact>
                    <name>
                        <use value="usual"/>
                        <family value="Wiggins"/>
                        <given value="Perry"/>
                    </name>
                    <relationship>
                        <coding>
                            <system value="http://hl7.org/fhir/v2/0131"/>
                            <code value="C"/>
                            <display value="Emergency Contact"/>
                        </coding>
                    </relationship>
                    <gender value="male"/>
                    <telecom>
                        <system value="phone"/>
                        <use value="temp"/>
                        <value value="076651234567"/>
                    </telecom>
                    <address>
                        <line value="43 Summers Avenue"/>
                        <line value="Somerset Street"/>
                        <city value="Medway"/>
                        <postalCode value="ME5 7TY"/>
                    </address>
                </contact>
                <managingOrganization>
                    <reference value="urn:uuid:a0ff2363-f00d-4542-9f6a-624e71513ebf"></reference>
                    <display value="The Surgery"/>
                </managingOrganization>
            </Patient>
        </resource>
    </entry>
    <!--Practitioner-Example-1-->
    <entry>
        <fullUrl value="urn:uuid:2a1022dd-a998-41a1-9941-71a413ee9172"/>
        <resource>
            <Practitioner>
                <id value="2a1022dd-a998-41a1-9941-71a413ee9172"/>
                <meta>
                    <profile value="https://fhir.hl7.org.uk/STU3/StructureDefinition/CareConnect-Practitioner-1"/>
                </meta>
                <name>
                    <family value="Parker"/>
                    <given value="Harry"/>
                    <title value="Mr"/>
                </name>
            </Practitioner>
        </resource>
    </entry>
    <entry>
        <fullUrl value="urn:uuid:2e8d26d7-1447-4e0e-a03e-3ab9897cd0ad"/>
        <resource>
            <PractitionerRole>
                <id value="2e8d26d7-1447-4e0e-a03e-3ab9897cd0ad"/>
                <meta>
                    <profile value="https://fhir.hl7.org.uk/STU3/StructureDefinition/CareConnect-PractitionerRole-1"/>
                </meta>
                <identifier>
                    <system value="https://fhir.nhs.uk/Id/sds-role-profile-id"></system>
                    <value value="8666463078"/>
                </identifier>
                <code>
                    <coding>
                        <system value="urn:oid:2.16.840.1.113883.2.1.3.2.4.17.196"></system>
                        <code value="CH1"></code>
                        <display value="Call Handler level 1"/>
                    </coding>
                </code>
                <telecom>
                    <system value="email"></system>
                    <value value="harry.parker@nhs.net"/>
                </telecom>
                <telecom>
                    <system value="phone"></system>
                    <value value="0123456789"/>
                </telecom>
                <practitioner>
                    <reference value="urn:uuid:2a1022dd-a998-41a1-9941-71a413ee9172"/>
                </practitioner>
                <organization>
                    <reference value="urn:uuid:1a513009-ec68-4ee8-b279-4cad6545c6ec"/>
                    <display value="NHS 111 Call Centre Chelmsford"/>
                </organization>
            </PractitionerRole>
        </resource>
    </entry>
    <entry>
        <fullUrl value="urn:uuid:1a513009-ec68-4ee8-b279-4cad6545c6ec"/>
        <resource>
            <Organization>
                <id value="1a513009-ec68-4ee8-b279-4cad6545c6ec"/>
                <meta>
                    <profile value="https://fhir.hl7.org.uk/STU3/StructureDefinition/CareConnect-Organization-1"/>
                </meta>
                <identifier>
                    <system value="https://fhir.nhs.uk/Id/ods-organization-code"/>
                    <value value="NHS111ABC"/>
                </identifier>
                <name value="NHS 111 Call Centre Chelmsford"/>
                <address>
                    <line value="The call centre"/>
                    <line value="2 Bank Road" />
                    <city value="Chelmsford"/>
                    <district value="Essex"/>
                    <postalCode value="EX1 5RT" />
                </address>
            </Organization>
        </resource>
    </entry>
    <entry>
        <fullUrl value="urn:uuid:4d7c758f-55c7-41f1-961f-4ccd1ed9d036"/>
        <resource>
            <Organization>
                <id value="4d7c758f-55c7-41f1-961f-4ccd1ed9d036"/>
                <meta>
                    <profile value="https://fhir.hl7.org.uk/STU3/StructureDefinition/CareConnect-Organization-1"/>
                </meta>
                <identifier>
                    <system value="https://fhir.nhs.uk/Id/ods-organization-code"/>
                    <value value="AMB123"/>
                </identifier>
                <name value="East Chelmsford Ambulance Service"/>
            </Organization>
        </resource>
    </entry>
    <entry>
        <fullUrl value="urn:uuid:a0ff2363-f00d-4542-9f6a-624e71513ebf"/>
        <resource>
            <Organization>
                <id value="a0ff2363-f00d-4542-9f6a-624e71513ebf"/>
                <meta>
                    <profile value="https://fhir.hl7.org.uk/STU3/StructureDefinition/CareConnect-Organization-1"/>
                </meta>
                <identifier>
                    <system value="https://fhir.nhs.uk/Id/ods-organization-code"/>
                    <value value="SUR556"/>
                </identifier>
                <name value="The Surgery"/>
                <address>
                    <line>The Surgery</line>
                    <line>Surgery Lane</line>
                    <city>Chelmsford</city>
                    <district>Essex</district>
                    <postalCode>EX5 4EE</postalCode>
                </address>
            </Organization>
        </resource>
    </entry>
    <entry>
        <fullUrl value="urn:uuid:679091ff-f273-40fc-a560-44594b6454eb"/>
        <resource>
            <Consent>
                <id value="679091ff-f273-40fc-a560-44594b6454eb"/>
                <status value="active"/>
                <patient>
                    <reference value="urn:uuid:e228e899-f437-4927-b5c5-4786dce9dc43"/>
                </patient>
                <purpose>
                    <system value="http://snomed.info/sct"/>
                    <code value="425691002"/>
                    <display value="Consent given for electronic record sharing"/>
                </purpose>
            </Consent>
        </resource>
    </entry>
    <entry>
        <fullUrl value="urn:uuid:5885c08d-e1c9-43ff-ae1b-aedb38067908"/>
        <resource>
            <ReferralRequest>
                <id value="5885c08d-e1c9-43ff-ae1b-aedb38067908"/>
                <status value="active"/>
                <intent value="proposal"/>
                <subject>
                    <reference value="urn:uuid:e228e899-f437-4927-b5c5-4786dce9dc43"/>
                </subject>
                <priority value="urgent"/>
                <reasonCode>
                    <coding>
                        <system value="urn:oid:2.16.840.1.113883.2.1.3.2.4.17.414"/>
                        <code value="Dx009"/>
                        <display value="Blood loss - urgent care require" />
                    </coding>
                </reasonCode>
                <type>
                    <coding>
                        <system value="http://snomed.info/sct"/>
                        <code value="397593002"/>
                        <display value="Referral by Accident and Emergency"/>
                    </coding>
                </type>
                <requester>
                    <agent>
                        <reference value="urn:uuid:2a1022dd-a998-41a1-9941-71a413ee9172"/>
                        <display value="Mr Harry Parker" />
                    </agent>
                </requester>
                <recipient>
                    <reference value="urn:uuid:4d7c758f-55c7-41f1-961f-4ccd1ed9d036"/>
                    <display value="East Chelmsford Ambulance Service"/>
                </recipient>
                <serviceRequested>
                    <coding>
                        <code value="R2"></code>
                        <system value="urn:oid:2.16.840.1.113883.2.1.3.2.4.17.329"></system>
                        <display value="Ambulance Request - Serious condition Cat R2"/>
                    </coding>
                </serviceRequested>
            </ReferralRequest>
        </resource>
    </entry>
    <entry>
        <fullUrl value="urn:uuid:6200f9ee-4d77-4d0f-8da1-b0bc4db0000d"/>
        <resource>
            <Location>
                <id value="6200f9ee-4d77-4d0f-8da1-b0bc4db0000d"/>
                <status value="active"/>
                <address>
                    <line>7 Lime Avenue</line>
                    <city>Chelmsford</city>
                    <postalCode>CH3 4HU</postalCode>
                    <country>GB</country>
                </address>
                <description value="The actual location is in the garden, round the back of the house" />
            </Location>
        </resource>
    </entry>
</Bundle>