{
    "resourceType": "Bundle",
    "id": "adta01",
    "identifier": {
        "value": "1391320453338055"
    },
    "type": "message",
    "entry": [
        {
            "fullUrl": "urn:oid:beca0934-810e-428c-b186-967f1d5515f4",
            "resource": {
                "resourceType": "MessageHeader",
                "id": "beca0934-810e-428c-b186-967f1d5515f4",
                "event": {
                    "code": "ADT^A01",
                    "display": "ADT^A01"
                },
                "destination": [
                    {
                        "name": "ROUTE"
                    }
                ],
                "sender": {
                    "identifier": {
                        "system": "https://fhir.nhs.uk/Id/ods-organization-code",
                        "value": "RCB"
                    },
                    "display": "RCB"
                },
                "timestamp": "2010-10-10T14:18:00.000+01:00",
                "focus": [
                    {
                        "reference": "urn:oid:d5b742fd-fc49-493f-bfb1-669f90bfc67b"
                    }
                ]
            }
        },
        {
            "fullUrl": "urn:oid:d5b742fd-fc49-493f-bfb1-669f90bfc67b",
            "resource": {
                "resourceType": "Encounter",
                "id": "d5b742fd-fc49-493f-bfb1-669f90bfc67b",
                "identifier": [
                    {
                        "system": "http://terminology.hl7.org/CodeSystem/v2-0203",
                        "value": "2139"
                    }
                ],
                "status": "in-progress",
                "class": {
                    "system": "http://hl7.org/fhir/v3/ActCode",
                    "code": "IMP",
                    "display": "inpatient encounter"
                },
                "type": [
                    {
                        "coding": [
                            {
                                "system": "https://fhir.nhs.uk/R4/CodeSystem/UKCore-AdmissionMethod",
                                "code": "13"
                            }
                        ]
                    },
                    {
                        "coding": [
                            {
                                "system": "https://fhir.nhs.uk/STU3/CodeSystem/DCH-Specialty-1",
                                "code": "300"
                            }
                        ]
                    }
                ],
                "subject": {
                    "reference": "urn:oid:e6067c8e-e14d-4f71-a97a-0b1d31e50c7a"
                },
                "participant": [
                    {
                        "type": [
                            {
                                "coding": [
                                    {
                                        "system": "http://hl7.org/fhir/v3/ParticipationType",
                                        "code": "ATND",
                                        "display": "attender"
                                    }
                                ]
                            }
                        ],
                        "individual": {
                            "identifier": {
                                "system": "https://fhir.hl7.org.uk/Id/gmc-number",
                                "value": "C3456789"
                            },
                            "display": "Dr Samuel Darwin"
                        }
                    },
                    {
                        "type": [
                            {
                                "coding": [
                                    {
                                        "system": "http://hl7.org/fhir/v3/ParticipationType",
                                        "code": "CON",
                                        "display": "consultant"
                                    }
                                ]
                            }
                        ],
                        "individual": {
                            "identifier": {
                                "system": "https://fhir.hl7.org.uk/Id/gmc-number",
                                "value": "C3456789"
                            },
                            "display": "Dr Samuel Darwin"
                        }
                    },
                    {
                        "type": [
                            {
                                "coding": [
                                    {
                                        "system": "http://hl7.org/fhir/v3/ParticipationType",
                                        "code": "REF",
                                        "display": "referrer"
                                    }
                                ]
                            }
                        ],
                        "individual": {
                            "identifier": {
                                "system": "https://fhir.hl7.org.uk/Id/gmc-number",
                                "value": "G5612908"
                            },
                            "display": "Dr Gregory Townley"
                        }
                    }
                ],
                "period": {
                    "start": "2010-10-20T17:16:00+01:00"
                },
                "hospitalization": {
                    "admitSource": {
                        "coding": [
                            {
                                "system": "https://fhir.nhs.uk/R4/CodeSystem/UKCore-SourceOfAdmission",
                                "code": "19"
                            }
                        ]
                    }
                },
                "location": [
                    {
                        "location": {
                            "reference": "urn:oid:1ddefce3-d054-46f3-9558-9706d04c7d2d",
                            "display": "OBS1"
                        },
                        "status": "active"
                    }
                ]
            }
        },
        {
            "fullUrl": "urn:oid:e6067c8e-e14d-4f71-a97a-0b1d31e50c7a",
            "resource": {
                "resourceType": "Patient",
                "id": "e6067c8e-e14d-4f71-a97a-0b1d31e50c7a",
                "identifier": [
                    {
                        "extension": [
                            {
                                "url": "https://fhir.hl7.org.uk/STU3/StructureDefinition/Extension-CareConnect-NHSNumberVerificationStatus-1",
                                "valueCodeableConcept": {
                                    "coding": [
                                        {
                                            "system": "https://fhir.hl7.org.uk/STU3/CodeSystem/CareConnect-NHSNumberVerificationStatus-1",
                                            "code": "01"
                                        }
                                    ]
                                }
                            }
                        ],
                        "system": "https://fhir.nhs.uk/Id/nhs-number",
                        "value": "3333333333"
                    }
                ],
                "name": [
                    {
                        "family": "SMITH",
                        "given": [
                            "FREDRICA"
                        ],
                        "prefix": [
                            "MRS"
                        ]
                    }
                ],
                "telecom": [
                    {
                        "system": "phone",
                        "value": "+441234567890",
                        "use": "home"
                    }
                ],
                "gender": "female",
                "birthDate": "1965-12-13",
                "address": [
                    {
                        "use": "home",
                        "city": "MALTON",
                        "district": "NORTH YORKSHIRE",
                        "postalCode": "YO32 5TT"
                    }
                ],
                "contact": [
                    {
                        "name": {
                            "family": "SMITH",
                            "given": [
                                "ALBERT"
                            ],
                            "prefix": [
                                "MR"
                            ]
                        },
                        "address": {
                            "use": "home",
                            "city": "MALTON",
                            "district": "NORTH YORKSHIRE",
                            "postalCode": "YO32 5TT"
                        }
                    }
                ],
                "generalPractitioner": [
                    {
                        "identifier": {
                            "system": "https://fhir.hl7.org.uk/Id/gmc-number",
                            "value": "G5612908"
                        },
                        "display": "Dr Gregory Townley"
                    }
                ],
                "managingOrganization": {
                    "identifier": {
                        "system": "https://fhir.nhs.uk/Id/ods-organization-code",
                        "value": "Y06601"
                    },
                    "display": "MALTON GP PRACTICE"
                }
            }
        },
        {
            "fullUrl": "urn:oid:1ddefce3-d054-46f3-9558-9706d04c7d2d",
            "resource": {
                "resourceType": "Location",
                "id": "1ddefce3-d054-46f3-9558-9706d04c7d2d",
                "identifier": [
                    {
                        "system": "htttps://fhir.xgenome.co.uk/Id/Ward",
                        "value": "OBS1"
                    }
                ],
                "name": "OBS1",
                "managingOrganization": {
                    "identifier": {
                        "system": "https://fhir.nhs.uk/Id/ods-organization-code",
                        "value": "RCB"
                    }
                },
                "partOf": {
                    "identifier": {
                        "system": "https://fhir.nhs.uk/Id/ods-site-code",
                        "value": "RCB55"
                    }
                }
            }
        }
    ]
}