{
    "resourceType": "Bundle",
    "id": "adta02",
    "identifier": {
        "value": "13403891320453338079"
    },
    "type": "message",
    "entry": [
        {
            "fullUrl": "urn:oid:8f6eb68a-f312-4e3b-95eb-640f0dcc3448",
            "resource": {
                "resourceType": "MessageHeader",
                "id": "8f6eb68a-f312-4e3b-95eb-640f0dcc3448",
                "event": {
                    "code": "ADT^A02",
                    "display": "ADT^A02"
                },
                "destination": [
                    {
                        "name": "ROUTE"
                    }
                ],
                "sender": {
                    "identifier": {
                        "system": "https://fhir.nhs.uk/Id/ods-organization-code",
                        "value": "RCB"
                    },
                    "display": "RCB"
                },
                "timestamp": "2010-11-29T13:15:00.000+00:00",
                "focus": [
                    {
                        "reference": "urn:oid:ba869b7c-ad34-4a8b-a0d2-53e0627e6c84"
                    }
                ]
            }
        },
        {
            "fullUrl": "urn:oid:ba869b7c-ad34-4a8b-a0d2-53e0627e6c84",
            "resource": {
                "resourceType": "Encounter",
                "id": "ba869b7c-ad34-4a8b-a0d2-53e0627e6c84",
                "identifier": [
                    {
                        "system": "http://terminology.hl7.org/CodeSystem/v2-0203",
                        "value": "1223"
                    }
                ],
                "status": "in-progress",
                "class": {
                    "system": "http://hl7.org/fhir/v3/ActCode",
                    "code": "IMP",
                    "display": "inpatient encounter"
                },
                "type": [
                    {
                        "coding": [
                            {
                                "system": "https://fhir.nhs.uk/R4/CodeSystem/UKCore-AdmissionMethod",
                                "code": "21"
                            }
                        ]
                    },
                    {
                        "coding": [
                            {
                                "system": "http://terminology.hl7.org.uk/CodeSystem/v2-0069",
                                "code": "300"
                            }
                        ]
                    }
                ],
                "subject": {
                    "reference": "urn:oid:14e04822-9fd2-4343-8b27-b00d80588772"
                },
                "participant": [
                    {
                        "type": [
                            {
                                "coding": [
                                    {
                                        "system": "http://hl7.org/fhir/v3/ParticipationType",
                                        "code": "ATND",
                                        "display": "attender"
                                    }
                                ]
                            }
                        ],
                        "individual": {
                            "identifier": {
                                "system": "https://fhir.hl7.org.uk/Id/gmc-number",
                                "value": "C3456789"
                            },
                            "display": "Dr Samuel Darwin"
                        }
                    },
                    {
                        "type": [
                            {
                                "coding": [
                                    {
                                        "system": "http://hl7.org/fhir/v3/ParticipationType",
                                        "code": "ADM",
                                        "display": "admitter"
                                    }
                                ]
                            }
                        ],
                        "individual": {
                            "identifier": {
                                "system": "https://fhir.hl7.org.uk/Id/gmc-number",
                                "value": "C3456789"
                            },
                            "display": "Dr Samuel Darwin"
                        }
                    },
                    {
                        "type": [
                            {
                                "coding": [
                                    {
                                        "system": "http://hl7.org/fhir/v3/ParticipationType",
                                        "code": "CON",
                                        "display": "consultant"
                                    }
                                ]
                            }
                        ],
                        "individual": {
                            "identifier": {
                                "system": "https://fhir.hl7.org.uk/Id/gmc-number",
                                "value": "C3456789"
                            },
                            "display": "Dr Samuel Darwin"
                        }
                    }
                ],
                "period": {
                    "start": "2010-11-29T11:00:00+00:00"
                },
                "hospitalization": {
                    "admitSource": {
                        "coding": [
                            {
                                "system": "https://fhir.nhs.uk/R4/CodeSystem/UKCore-SourceOfAdmission",
                                "code": "51"
                            }
                        ]
                    }
                },
                "location": [
                    {
                        "location": {
                            "reference": "urn:oid:6297eed2-7dcb-48c2-8340-738308a1999d",
                            "display": "RCB55-RECOVERYWARD"
                        },
                        "status": "active"
                    },
                    {
                        "location": {
                            "reference": "urn:oid:7e72be04-056b-4179-8ab1-4b5043fd0eb6",
                            "display": "RCB55-SURGWARD"
                        },
                        "status": "completed"
                    }
                ]
            }
        },
        {
            "fullUrl": "urn:oid:14e04822-9fd2-4343-8b27-b00d80588772",
            "resource": {
                "resourceType": "Patient",
                "id": "14e04822-9fd2-4343-8b27-b00d80588772",
                "identifier": [
                    {
                        "extension": [
                            {
                                "url": "https://fhir.hl7.org.uk/STU3/StructureDefinition/Extension-CareConnect-NHSNumberVerificationStatus-1",
                                "valueCodeableConcept": {
                                    "coding": [
                                        {
                                            "system": "https://fhir.hl7.org.uk/STU3/CodeSystem/CareConnect-NHSNumberVerificationStatus-1",
                                            "code": "01"
                                        }
                                    ]
                                }
                            }
                        ],
                        "system": "https://fhir.nhs.uk/Id/nhs-number",
                        "value": "3333333333"
                    }
                ],
                "name": [
                    {
                        "family": "SMITH",
                        "given": [
                            "FREDRICA"
                        ],
                        "prefix": [
                            "MRS"
                        ]
                    }
                ],
                "telecom": [
                    {
                        "system": "phone",
                        "value": "+441234567890",
                        "use": "home"
                    }
                ],
                "gender": "female",
                "birthDate": "1965-12-13",
                "address": [
                    {
                        "use": "home",
                        "city": "MALTON",
                        "district": "NORTH YORKSHIRE",
                        "postalCode": "YO32 5TT"
                    }
                ],
                "generalPractitioner": [
                    {
                        "identifier": {
                            "system": "https://fhir.hl7.org.uk/Id/gmc-number",
                            "value": "G5612908"
                        },
                        "display": "Dr Gregory Townley"
                    }
                ],
                "managingOrganization": {
                    "identifier": {
                        "system": "https://fhir.nhs.uk/Id/ods-organization-code",
                        "value": "Y06601"
                    },
                    "display": "MALTON GP PRACTICE"
                }
            }
        },
        {
            "fullUrl": "urn:oid:6297eed2-7dcb-48c2-8340-738308a1999d",
            "resource": {
                "resourceType": "Location",
                "id": "6297eed2-7dcb-48c2-8340-738308a1999d",
                "identifier": [
                    {
                        "system": "htttps://fhir.xgenome.co.uk/Id/Ward",
                        "value": "RCB55-RECOVERYWARD"
                    }
                ],
                "name": "RCB55-RECOVERYWARD",
                "managingOrganization": {
                    "identifier": {
                        "system": "https://fhir.nhs.uk/Id/ods-organization-code",
                        "value": "West Wing"
                    }
                },
                "partOf": {
                    "identifier": {
                        "system": "https://fhir.nhs.uk/Id/ods-site-code",
                        "value": "RCB55"
                    }
                }
            }
        },
        {
            "fullUrl": "urn:oid:7e72be04-056b-4179-8ab1-4b5043fd0eb6",
            "resource": {
                "resourceType": "Location",
                "id": "7e72be04-056b-4179-8ab1-4b5043fd0eb6",
                "identifier": [
                    {
                        "system": "htttps://fhir.xgenome.co.uk/Id/Ward",
                        "value": "RCB55-SURGWARD"
                    }
                ],
                "name": "RCB55-SURGWARD",
                "managingOrganization": {
                    "identifier": {
                        "system": "https://fhir.nhs.uk/Id/ods-organization-code",
                        "value": "West Wing"
                    }
                },
                "partOf": {
                    "identifier": {
                        "system": "https://fhir.nhs.uk/Id/ods-site-code",
                        "value": "RCB55"
                    }
                }
            }
        }
    ]
}