{
    "resourceType": "Bundle",
    "id" : "ormo01",
    "identifier": {
        "value": "1391320453338055"
    },
    "type": "message",
    "entry": [
        {
            "fullUrl": "urn:oid:e32bbfd3-4c05-441c-aa00-e557c0dfe9c6",
            "resource": {
                "resourceType": "MessageHeader",
                "id": "e32bbfd3-4c05-441c-aa00-e557c0dfe9c6",
                "event": {
                    "code": "ORM^O01",
                    "display": "ORM^O01"
                },
                "destination": [
                    {
                        "name": "Y06601"
                    }
                ],
                "sender": {
                    "identifier": {
                        "system": "https://fhir.nhs.uk/Id/ods-organization-code",
                        "value": "RCB"
                    },
                    "display": "RCB"
                },
                "timestamp": "2010-10-10T14:18:00.000+01:00",
                "focus": [
                    {
                        "reference": "urn:oid:97aa3d54-5ffe-456e-b865-4ac925c1bfdf"
                    }
                ]
            }
        },
        {
            "fullUrl": "urn:oid:97aa3d54-5ffe-456e-b865-4ac925c1bfdf",
            "resource": {
                "resourceType": "ProcedureRequest",
                "id": "97aa3d54-5ffe-456e-b865-4ac925c1bfdf",
                "identifier": [
                    {
                        "value": "20060307110114"
                    }
                ],
                "code": {
                    "coding": [
                        {
                            "code": "394720003",
                            "display": "Asthma medication review"
                        }
                    ]
                },
                "subject": {
                    "reference": "urn:oid:a7fbd3dc-d994-4be1-8e02-d34655b954fc"
                },
                "occurrenceDateTime": "2006-03-07T11:01:14+00:00",
                "reasonReference": [
                    {
                        "reference": "urn:oid:339d27fd-d02c-4fb2-80d0-cf249661a1f0"
                    }
                ]
            }
        },
        {
            "fullUrl": "urn:oid:339d27fd-d02c-4fb2-80d0-cf249661a1f0",
            "resource": {
                "resourceType": "Condition",
                "id": "339d27fd-d02c-4fb2-80d0-cf249661a1f0",
                "code": {
                    "coding": [
                        {
                            "code": "313299006",
                            "display": "Severe chronic obstructive pulmonary disease"
                        }
                    ]
                },
                "subject": {
                    "reference": "urn:oid:a7fbd3dc-d994-4be1-8e02-d34655b954fc"
                },
                "onsetDateTime": "2010-10-09T09:00:00+01:00",
                "asserter": {
                    "identifier": {
                        "system": "https://fhir.hl7.org.uk/Id/gmc-number",
                        "value": "C3456789"
                    },
                    "display": "Dr Samuel Darwin"
                }
            }
        },
        {
            "fullUrl": "urn:oid:a7fbd3dc-d994-4be1-8e02-d34655b954fc",
            "resource": {
                "resourceType": "Patient",
                "id": "a7fbd3dc-d994-4be1-8e02-d34655b954fc",
                "identifier": [
                    {
                        "extension": [
                            {
                                "url": "https://fhir.hl7.org.uk/STU3/StructureDefinition/Extension-CareConnect-NHSNumberVerificationStatus-1",
                                "valueCodeableConcept": {
                                    "coding": [
                                        {
                                            "system": "https://fhir.hl7.org.uk/STU3/CodeSystem/CareConnect-NHSNumberVerificationStatus-1",
                                            "code": "01"
                                        }
                                    ]
                                }
                            }
                        ],
                        "system": "https://fhir.nhs.uk/Id/nhs-number",
                        "value": "3333333333"
                    }
                ],
                "name": [
                    {
                        "family": "SMITH",
                        "given": [
                            "FREDRICA"
                        ],
                        "prefix": [
                            "MRS"
                        ]
                    }
                ],
                "telecom": [
                    {
                        "system": "phone",
                        "value": "+441234567890",
                        "use": "home"
                    }
                ],
                "gender": "female",
                "birthDate": "1965-12-13",
                "address": [
                    {
                        "use": "home",
                        "city": "MALTON",
                        "district": "NORTH YORKSHIRE",
                        "postalCode": "YO32 5TT"
                    }
                ]
            }
        },
        {
            "fullUrl": "urn:oid:c8ccff63-899d-41f3-8fc0-faba55f47c86",
            "resource": {
                "resourceType": "Encounter",
                "id": "c8ccff63-899d-41f3-8fc0-faba55f47c86",
                "identifier": [
                    {
                        "system": "http://terminology.hl7.org/CodeSystem/v2-0203",
                        "value": "2139"
                    }
                ],
                "status": "in-progress",
                "class": {
                    "system": "http://hl7.org/fhir/v3/ActCode",
                    "code": "EMER",
                    "display": "emergency"
                },
                "type": [
                    {
                        "coding": [
                            {
                                "system": "https://fhir.nhs.uk/R4/CodeSystem/UKCore-AdmissionMethod",
                                "code": "13"
                            }
                        ]
                    },
                    {
                        "coding": [
                            {
                                "system": "https://fhir.nhs.uk/STU3/CodeSystem/DCH-Specialty-1",
                                "code": "300"
                            }
                        ]
                    }
                ],
                "subject": {
                    "reference": "urn:oid:a7fbd3dc-d994-4be1-8e02-d34655b954fc"
                },
                "participant": [
                    {
                        "type": [
                            {
                                "coding": [
                                    {
                                        "system": "http://hl7.org/fhir/v3/ParticipationType",
                                        "code": "ATND",
                                        "display": "attender"
                                    }
                                ]
                            }
                        ],
                        "individual": {
                            "identifier": {
                                "system": "https://fhir.hl7.org.uk/Id/gmc-number",
                                "value": "C3456789"
                            },
                            "display": "Dr Samuel Darwin"
                        }
                    },
                    {
                        "type": [
                            {
                                "coding": [
                                    {
                                        "system": "http://hl7.org/fhir/v3/ParticipationType",
                                        "code": "CON",
                                        "display": "consultant"
                                    }
                                ]
                            }
                        ],
                        "individual": {
                            "identifier": {
                                "system": "https://fhir.hl7.org.uk/Id/gmc-number",
                                "value": "C3456789"
                            },
                            "display": "Dr Samuel Darwin"
                        }
                    },
                    {
                        "type": [
                            {
                                "coding": [
                                    {
                                        "system": "http://hl7.org/fhir/v3/ParticipationType",
                                        "code": "REF",
                                        "display": "referrer"
                                    }
                                ]
                            }
                        ],
                        "individual": {
                            "identifier": {
                                "system": "https://fhir.hl7.org.uk/Id/gmc-number",
                                "value": "G5612908"
                            },
                            "display": "Dr Gregory Townley"
                        }
                    }
                ],
                "period": {
                    "start": "2010-10-20T17:16:00+01:00"
                },
                "hospitalization": {
                    "admitSource": {
                        "coding": [
                            {
                                "system": "https://fhir.nhs.uk/R4/CodeSystem/UKCore-SourceOfAdmission",
                                "code": "19"
                            }
                        ]
                    }
                },
                "location": [
                    {
                        "location": {
                            "reference": "urn:oid:8f7b818f-3dc9-42fb-8758-dd62d7fd693b",
                            "display": "ED"
                        },
                        "status": "active"
                    }
                ]
            }
        },
        {
            "fullUrl": "urn:oid:8f7b818f-3dc9-42fb-8758-dd62d7fd693b",
            "resource": {
                "resourceType": "Location",
                "id": "8f7b818f-3dc9-42fb-8758-dd62d7fd693b",
                "identifier": [
                    {
                        "system": "htttps://fhir.xgenome.co.uk/Id/Ward",
                        "value": "ED"
                    }
                ],
                "name": "ED",
                "managingOrganization": {
                    "identifier": {
                        "system": "https://fhir.nhs.uk/Id/ods-organization-code",
                        "value": "RCB"
                    }
                },
                "partOf": {
                    "identifier": {
                        "system": "https://fhir.nhs.uk/Id/ods-site-code",
                        "value": "RCB55"
                    }
                }
            }
        }
    ]
}