<?xml version="1.0" encoding="UTF-8"?>

<Bundle xmlns="http://hl7.org/fhir">
  <id value="orur01"/>
  <identifier>
    <value value="14038913245354"/>
  </identifier>
  <type value="message"/>
  <entry>
    <fullUrl value="urn:oid:de23904a-291c-4e15-adce-da8bb9f36fc9"/>
    <resource>
      <MessageHeader>
        <id value="de23904a-291c-4e15-adce-da8bb9f36fc9"/>
        <text>
          <status value="generated"/><div xmlns="http://www.w3.org/1999/xhtml"><p><b>Generated Narrative with Details</b></p><p><b>id</b>: de23904a-291c-4e15-adce-da8bb9f36fc9</p><p><b>event</b>: ORU^R01 (Details: [not stated] code ORU^R01 = 'ORU^R01', stated as 'ORU^R01')</p><h3>Destinations</h3><table class="grid"><tr><td>-</td><td><b>Name</b></td></tr><tr><td>*</td><td>ROUTE</td></tr></table><p><b>sender</b>: RCB</p><p><b>timestamp</b>: 21-May-2018 13:45:12</p><p><b>focus</b>: <a href="urn:oid:6510c08d-785e-44bd-9006-5e813347cb15">urn:oid:6510c08d-785e-44bd-9006-5e813347cb15</a></p></div>
        </text>
        <event>
          <code value="ORU^R01"/>
          <display value="ORU^R01"/>
        </event>
        <destination>
          <name value="ROUTE"/>
        </destination>
        <sender>
          <identifier>
            <system value="https://fhir.nhs.uk/Id/ods-organization-code"/>
            <value value="RCB"/>
          </identifier>
          <display value="RCB"/>
        </sender>
        <timestamp value="2018-05-21T13:45:12.000+01:00"/>
        <focus>
          <reference value="urn:oid:6510c08d-785e-44bd-9006-5e813347cb15"/>
        </focus>
      </MessageHeader>
    </resource>
  </entry>
  <entry>
    <fullUrl value="urn:oid:6510c08d-785e-44bd-9006-5e813347cb15"/>
    <resource>
      <DiagnosticReport>
        <id value="6510c08d-785e-44bd-9006-5e813347cb15"/>
        <text>
          <status value="generated"/><div xmlns="http://www.w3.org/1999/xhtml"><p><b>Generated Narrative with Details</b></p><p><b>id</b>: 6510c08d-785e-44bd-9006-5e813347cb15</p><p><b>identifier</b>: 108512374</p><p><b>status</b>: ?</p><p><b>code</b>: NEWS2 <span style="background: LightGoldenRodYellow">(Details : {SNOMED CT code '859261000000108' = '859261000000108', given as 'NEWS2'})</span></p><p><b>subject</b>: <a href="urn:oid:e91866d4-062e-4bda-8f08-9ec331395cf3">urn:oid:e91866d4-062e-4bda-8f08-9ec331395cf3</a></p><p><b>effective</b>: 21-May-2018 13:45:05 --&gt; (ongoing)</p><p><b>result</b>: </p><ul><li><a href="urn:oid:692a2d90-78c8-4dfd-bd75-f6fe96df1b90">urn:oid:692a2d90-78c8-4dfd-bd75-f6fe96df1b90</a></li><li><a href="urn:oid:e9ebdbe9-591e-44ec-971f-038b18a10c4e">urn:oid:e9ebdbe9-591e-44ec-971f-038b18a10c4e</a></li><li><a href="urn:oid:eaad7cf1-a541-4c77-9aa1-3297346d8ef9">urn:oid:eaad7cf1-a541-4c77-9aa1-3297346d8ef9</a></li><li><a href="urn:oid:8a240bc7-0d43-43b4-97cc-940a3ed7d67c">urn:oid:8a240bc7-0d43-43b4-97cc-940a3ed7d67c</a></li><li><a href="urn:oid:82f5ec88-8423-49bd-816a-9341c2f75ab6">urn:oid:82f5ec88-8423-49bd-816a-9341c2f75ab6</a></li><li><a href="urn:oid:e41e5ce2-cd35-4541-9cfe-091935dd45c6">urn:oid:e41e5ce2-cd35-4541-9cfe-091935dd45c6</a></li><li><a href="urn:oid:a4a9d515-fa61-4945-8147-7c138bd9698e">urn:oid:a4a9d515-fa61-4945-8147-7c138bd9698e</a></li></ul></div>
        </text>
        <identifier>
          <value value="108512374"/>
        </identifier>
        <status value="?"/>
        <code>
          <coding>
            <system value="http://snomed.info/sct"/>
            <code value="859261000000108"/>
            <display value="NEWS2"/>
          </coding>
        </code>
        <subject>
          <reference value="urn:oid:e91866d4-062e-4bda-8f08-9ec331395cf3"/>
        </subject>
        <effectivePeriod>
          <start value="2018-05-21T13:45:05+01:00"/>
        </effectivePeriod>
        <result>
          <reference value="urn:oid:692a2d90-78c8-4dfd-bd75-f6fe96df1b90"/>
        </result>
        <result>
          <reference value="urn:oid:e9ebdbe9-591e-44ec-971f-038b18a10c4e"/>
        </result>
        <result>
          <reference value="urn:oid:eaad7cf1-a541-4c77-9aa1-3297346d8ef9"/>
        </result>
        <result>
          <reference value="urn:oid:8a240bc7-0d43-43b4-97cc-940a3ed7d67c"/>
        </result>
        <result>
          <reference value="urn:oid:82f5ec88-8423-49bd-816a-9341c2f75ab6"/>
        </result>
        <result>
          <reference value="urn:oid:e41e5ce2-cd35-4541-9cfe-091935dd45c6"/>
        </result>
        <result>
          <reference value="urn:oid:a4a9d515-fa61-4945-8147-7c138bd9698e"/>
        </result>
      </DiagnosticReport>
    </resource>
  </entry>
  <entry>
    <fullUrl value="urn:oid:692a2d90-78c8-4dfd-bd75-f6fe96df1b90"/>
    <resource>
      <Observation>
        <id value="692a2d90-78c8-4dfd-bd75-f6fe96df1b90"/>
        <text>
          <status value="generated"/><div xmlns="http://www.w3.org/1999/xhtml"><p><b>Generated Narrative with Details</b></p><p><b>id</b>: 692a2d90-78c8-4dfd-bd75-f6fe96df1b90</p><p><b>status</b>: final</p><p><b>code</b>: Heart Rate <span style="background: LightGoldenRodYellow">(Details : {SNOMED CT code '364075005' = 'Heart rate', given as 'Heart Rate'})</span></p><p><b>subject</b>: <a href="urn:oid:e91866d4-062e-4bda-8f08-9ec331395cf3">urn:oid:e91866d4-062e-4bda-8f08-9ec331395cf3</a></p><p><b>value</b>: 73.0 /min</p><p><b>comment</b>:  /r</p></div>
        </text>
        <status value="final"/>
        <code>
          <coding>
            <system value="http://snomed.info/sct"/>
            <code value="364075005"/>
            <display value="Heart Rate"/>
          </coding>
        </code>
        <subject>
          <reference value="urn:oid:e91866d4-062e-4bda-8f08-9ec331395cf3"/>
        </subject>
        <valueQuantity>
          <value value="73.0"/>
          <unit value="/min"/>
        </valueQuantity>
        <comment value=" /r"/>
      </Observation>
    </resource>
  </entry>
  <entry>
    <fullUrl value="urn:oid:e9ebdbe9-591e-44ec-971f-038b18a10c4e"/>
    <resource>
      <Observation>
        <id value="e9ebdbe9-591e-44ec-971f-038b18a10c4e"/>
        <text>
          <status value="generated"/><div xmlns="http://www.w3.org/1999/xhtml"><p><b>Generated Narrative with Details</b></p><p><b>id</b>: e9ebdbe9-591e-44ec-971f-038b18a10c4e</p><p><b>status</b>: final</p><p><b>code</b>: Blood oxygen saturation <span style="background: LightGoldenRodYellow">(Details : {SNOMED CT code '103228002' = 'Hemoglobin saturation with oxygen', given as 'Blood oxygen saturation'})</span></p><p><b>subject</b>: <a href="urn:oid:e91866d4-062e-4bda-8f08-9ec331395cf3">urn:oid:e91866d4-062e-4bda-8f08-9ec331395cf3</a></p><p><b>value</b>: 98.0 %</p><p><b>comment</b>:  /r</p></div>
        </text>
        <status value="final"/>
        <code>
          <coding>
            <system value="http://snomed.info/sct"/>
            <code value="103228002"/>
            <display value="Blood oxygen saturation"/>
          </coding>
        </code>
        <subject>
          <reference value="urn:oid:e91866d4-062e-4bda-8f08-9ec331395cf3"/>
        </subject>
        <valueQuantity>
          <value value="98.0"/>
          <unit value="%"/>
        </valueQuantity>
        <comment value=" /r"/>
      </Observation>
    </resource>
  </entry>
  <entry>
    <fullUrl value="urn:oid:eaad7cf1-a541-4c77-9aa1-3297346d8ef9"/>
    <resource>
      <Observation>
        <id value="eaad7cf1-a541-4c77-9aa1-3297346d8ef9"/>
        <text>
          <status value="generated"/><div xmlns="http://www.w3.org/1999/xhtml"><p><b>Generated Narrative with Details</b></p><p><b>id</b>: eaad7cf1-a541-4c77-9aa1-3297346d8ef9</p><p><b>status</b>: final</p><p><b>code</b>: Breathing room air <span style="background: LightGoldenRodYellow">(Details : {SNOMED CT code '722742002' = 'Breathing room air (finding)', given as 'Breathing room air'})</span></p><p><b>subject</b>: <a href="urn:oid:e91866d4-062e-4bda-8f08-9ec331395cf3">urn:oid:e91866d4-062e-4bda-8f08-9ec331395cf3</a></p><p><b>comment</b>:  /r</p></div>
        </text>
        <status value="final"/>
        <code>
          <coding>
            <system value="http://snomed.info/sct"/>
            <code value="722742002"/>
            <display value="Breathing room air"/>
          </coding>
        </code>
        <subject>
          <reference value="urn:oid:e91866d4-062e-4bda-8f08-9ec331395cf3"/>
        </subject>
        <comment value=" /r"/>
      </Observation>
    </resource>
  </entry>
  <entry>
    <fullUrl value="urn:oid:8a240bc7-0d43-43b4-97cc-940a3ed7d67c"/>
    <resource>
      <Observation>
        <id value="8a240bc7-0d43-43b4-97cc-940a3ed7d67c"/>
        <text>
          <status value="generated"/><div xmlns="http://www.w3.org/1999/xhtml"><p><b>Generated Narrative with Details</b></p><p><b>id</b>: 8a240bc7-0d43-43b4-97cc-940a3ed7d67c</p><p><b>status</b>: final</p><p><b>code</b>: ACVPU (Alert Confusion Voice Pain Unresponsive) scale score <span style="background: LightGoldenRodYellow">(Details : {SNOMED CT code '1104441000000107' = '1104441000000107', given as 'ACVPU (Alert Confusion Voice Pain Unresponsive) scale score'})</span></p><p><b>subject</b>: <a href="urn:oid:e91866d4-062e-4bda-8f08-9ec331395cf3">urn:oid:e91866d4-062e-4bda-8f08-9ec331395cf3</a></p><p><b>value</b>: Mentally alert <span style="background: LightGoldenRodYellow">(Details : {SNOMED CT code '248234008' = 'Mentally alert', given as 'Mentally alert'})</span></p><p><b>comment</b>:  /r</p></div>
        </text>
        <status value="final"/>
        <code>
          <coding>
            <system value="http://snomed.info/sct"/>
            <code value="1104441000000107"/>
            <display value="ACVPU (Alert Confusion Voice Pain Unresponsive) scale score"/>
          </coding>
        </code>
        <subject>
          <reference value="urn:oid:e91866d4-062e-4bda-8f08-9ec331395cf3"/>
        </subject>
        <valueCodeableConcept>
          <coding>
            <system value="http://snomed.info/sct"/>
            <code value="248234008"/>
            <display value="Mentally alert"/>
          </coding>
        </valueCodeableConcept>
        <comment value=" /r"/>
      </Observation>
    </resource>
  </entry>
  <entry>
    <fullUrl value="urn:oid:82f5ec88-8423-49bd-816a-9341c2f75ab6"/>
    <resource>
      <Observation>
        <id value="82f5ec88-8423-49bd-816a-9341c2f75ab6"/>
        <text>
          <status value="generated"/><div xmlns="http://www.w3.org/1999/xhtml"><p><b>Generated Narrative with Details</b></p><p><b>id</b>: 82f5ec88-8423-49bd-816a-9341c2f75ab6</p><p><b>status</b>: final</p><p><b>code</b>: Respiratory rate <span style="background: LightGoldenRodYellow">(Details : {SNOMED CT code '86290005' = 'Respiratory rate', given as 'Respiratory rate'})</span></p><p><b>subject</b>: <a href="urn:oid:e91866d4-062e-4bda-8f08-9ec331395cf3">urn:oid:e91866d4-062e-4bda-8f08-9ec331395cf3</a></p><p><b>value</b>: 20.0 /min</p><p><b>comment</b>:  /r</p></div>
        </text>
        <status value="final"/>
        <code>
          <coding>
            <system value="http://snomed.info/sct"/>
            <code value="86290005"/>
            <display value="Respiratory rate"/>
          </coding>
        </code>
        <subject>
          <reference value="urn:oid:e91866d4-062e-4bda-8f08-9ec331395cf3"/>
        </subject>
        <valueQuantity>
          <value value="20.0"/>
          <unit value="/min"/>
        </valueQuantity>
        <comment value=" /r"/>
      </Observation>
    </resource>
  </entry>
  <entry>
    <fullUrl value="urn:oid:e41e5ce2-cd35-4541-9cfe-091935dd45c6"/>
    <resource>
      <Observation>
        <id value="e41e5ce2-cd35-4541-9cfe-091935dd45c6"/>
        <text>
          <status value="generated"/><div xmlns="http://www.w3.org/1999/xhtml"><p><b>Generated Narrative with Details</b></p><p><b>id</b>: e41e5ce2-cd35-4541-9cfe-091935dd45c6</p><p><b>status</b>: final</p><p><b>code</b>: Systolic arterial pressure <span style="background: LightGoldenRodYellow">(Details : {[not stated] code '72313002' = '72313002', given as 'Systolic arterial pressure'})</span></p><p><b>subject</b>: <a href="urn:oid:e91866d4-062e-4bda-8f08-9ec331395cf3">urn:oid:e91866d4-062e-4bda-8f08-9ec331395cf3</a></p><p><b>effective</b>: 11-May-2018 22:05:25</p><p><b>value</b>: 132.0 mm[Hg]</p><p><b>comment</b>:  /r</p><h3>ReferenceRanges</h3><table class="grid"><tr><td>-</td><td><b>Text</b></td></tr><tr><td>*</td><td>90-120</td></tr></table></div>
        </text>
        <status value="final"/>
        <code>
          <coding>
            <code value="72313002"/>
            <display value="Systolic arterial pressure"/>
          </coding>
        </code>
        <subject>
          <reference value="urn:oid:e91866d4-062e-4bda-8f08-9ec331395cf3"/>
        </subject>
        <effectiveDateTime value="2018-05-11T22:05:25+01:00"/>
        <valueQuantity>
          <value value="132.0"/>
          <unit value="mm[Hg]"/>
        </valueQuantity>
        <comment value=" /r"/>
        <referenceRange>
          <text value="90-120"/>
        </referenceRange>
      </Observation>
    </resource>
  </entry>
  <entry>
    <fullUrl value="urn:oid:a4a9d515-fa61-4945-8147-7c138bd9698e"/>
    <resource>
      <Observation>
        <id value="a4a9d515-fa61-4945-8147-7c138bd9698e"/>
        <text>
          <status value="generated"/><div xmlns="http://www.w3.org/1999/xhtml"><p><b>Generated Narrative with Details</b></p><p><b>id</b>: a4a9d515-fa61-4945-8147-7c138bd9698e</p><p><b>status</b>: final</p><p><b>code</b>: Diastolic arterial pressure <span style="background: LightGoldenRodYellow">(Details : {SNOMED CT code '1091811000000102' = '1091811000000102', given as 'Diastolic arterial pressure'})</span></p><p><b>subject</b>: <a href="urn:oid:e91866d4-062e-4bda-8f08-9ec331395cf3">urn:oid:e91866d4-062e-4bda-8f08-9ec331395cf3</a></p><p><b>effective</b>: 11-May-2018 22:05:25</p><p><b>value</b>: 86.0 mm[Hg]</p><p><b>comment</b>:  /r</p><h3>ReferenceRanges</h3><table class="grid"><tr><td>-</td><td><b>Text</b></td></tr><tr><td>*</td><td>60-80</td></tr></table></div>
        </text>
        <status value="final"/>
        <code>
          <coding>
            <system value="http://snomed.info/sct"/>
            <code value="1091811000000102"/>
            <display value="Diastolic arterial pressure"/>
          </coding>
        </code>
        <subject>
          <reference value="urn:oid:e91866d4-062e-4bda-8f08-9ec331395cf3"/>
        </subject>
        <effectiveDateTime value="2018-05-11T22:05:25+01:00"/>
        <valueQuantity>
          <value value="86.0"/>
          <unit value="mm[Hg]"/>
        </valueQuantity>
        <comment value=" /r"/>
        <referenceRange>
          <text value="60-80"/>
        </referenceRange>
      </Observation>
    </resource>
  </entry>
  <entry>
    <fullUrl value="urn:oid:e91866d4-062e-4bda-8f08-9ec331395cf3"/>
    <resource>
      <Patient>
        <id value="e91866d4-062e-4bda-8f08-9ec331395cf3"/>
        <text>
          <status value="generated"/><div xmlns="http://www.w3.org/1999/xhtml"><p><b>Generated Narrative with Details</b></p><p><b>id</b>: e91866d4-062e-4bda-8f08-9ec331395cf3</p><p><b>identifier</b>: 3333333333</p><p><b>name</b>: FREDRICA SMITH </p><p><b>telecom</b>: ph: +441234567890(HOME)</p><p><b>gender</b>: female</p><p><b>birthDate</b>: 1965-12-13</p><p><b>address</b>: MALTON YO32 5TT (HOME)</p><p><b>generalPractitioner</b>: Dr Gregory Townley</p><p><b>managingOrganization</b>: MALTON GP PRACTICE</p></div>
        </text>
        <identifier>
          <extension url="https://fhir.hl7.org.uk/STU3/StructureDefinition/Extension-CareConnect-NHSNumberVerificationStatus-1">
            <valueCodeableConcept>
              <coding>
                <system value="https://fhir.hl7.org.uk/STU3/CodeSystem/CareConnect-NHSNumberVerificationStatus-1"/>
                <code value="01"/>
              </coding>
            </valueCodeableConcept>
          </extension>
          <system value="https://fhir.nhs.uk/Id/nhs-number"/>
          <value value="3333333333"/>
        </identifier>
        <name>
          <family value="SMITH"/>
          <given value="FREDRICA"/>
          <prefix value="MRS"/>
        </name>
        <telecom>
          <system value="phone"/>
          <value value="+441234567890"/>
          <use value="home"/>
        </telecom>
        <gender value="female"/>
        <birthDate value="1965-12-13"/>
        <address>
          <use value="home"/>
          <city value="MALTON"/>
          <district value="NORTH YORKSHIRE"/>
          <postalCode value="YO32 5TT"/>
        </address>
        <generalPractitioner>
          <identifier>
            <system value="https://fhir.hl7.org.uk/Id/gmc-number"/>
            <value value="G5612908"/>
          </identifier>
          <display value="Dr Gregory Townley"/>
        </generalPractitioner>
        <managingOrganization>
          <identifier>
            <system value="https://fhir.nhs.uk/Id/ods-organization-code"/>
            <value value="Y06601"/>
          </identifier>
          <display value="MALTON GP PRACTICE"/>
        </managingOrganization>
      </Patient>
    </resource>
  </entry>
</Bundle>