<?xml version="1.0" encoding="UTF-8"?>

<Bundle xmlns="http://hl7.org/fhir">
  <id value="orur01-path"/>
  <identifier>
    <value value="3629"/>
  </identifier>
  <type value="message"/>
  <entry>
    <fullUrl value="urn:oid:3ad25644-379e-4c15-86ad-1ea7fe517a12"/>
    <resource>
      <MessageHeader>
        <id value="3ad25644-379e-4c15-86ad-1ea7fe517a12"/>
        <text>
          <status value="generated"/><div xmlns="http://www.w3.org/1999/xhtml"><p><b>Generated Narrative with Details</b></p><p><b>id</b>: 3ad25644-379e-4c15-86ad-1ea7fe517a12</p><p><b>event</b>: ORU^R01 (Details: [not stated] code ORU^R01 = 'ORU^R01', stated as 'ORU^R01')</p><h3>Destinations</h3><table class="grid"><tr><td>-</td><td><b>Name</b></td></tr><tr><td>*</td><td>LIS</td></tr></table><p><b>sender</b>: LCA</p><p><b>timestamp</b>: 31 Jul 1998, 15:32:00</p><p><b>focus</b>: </p><ul><li><a href="urn:oid:fc2beec5-8f54-4b1f-b578-7e4f8745dc2c">urn:oid:fc2beec5-8f54-4b1f-b578-7e4f8745dc2c</a></li><li><a href="urn:oid:5f16117e-6b4d-4cfb-8589-266949c24d52">urn:oid:5f16117e-6b4d-4cfb-8589-266949c24d52</a></li></ul></div>
        </text>
        <event>
          <code value="ORU^R01"/>
          <display value="ORU^R01"/>
        </event>
        <destination>
          <name value="LIS"/>
        </destination>
        <sender>
          <identifier>
            <system value="https://fhir.nhs.uk/Id/ods-organization-code"/>
            <value value="LCA"/>
          </identifier>
          <display value="LCA"/>
        </sender>
        <timestamp value="1998-07-31T15:32:00.000+01:00"/>
        <focus>
          <reference value="urn:oid:fc2beec5-8f54-4b1f-b578-7e4f8745dc2c"/>
        </focus>
        <focus>
          <reference value="urn:oid:5f16117e-6b4d-4cfb-8589-266949c24d52"/>
        </focus>
      </MessageHeader>
    </resource>
  </entry>
  <entry>
    <fullUrl value="urn:oid:fc2beec5-8f54-4b1f-b578-7e4f8745dc2c"/>
    <resource>
      <DiagnosticReport>
        <id value="fc2beec5-8f54-4b1f-b578-7e4f8745dc2c"/>
        <text>
          <status value="generated"/><div xmlns="http://www.w3.org/1999/xhtml"><p><b>Generated Narrative with Details</b></p><p><b>id</b>: fc2beec5-8f54-4b1f-b578-7e4f8745dc2c</p><p><b>identifier</b>: 8642753100012, 20809880170</p><p><b>status</b>: final</p><p><b>code</b>: UPPER RESPIRATORYCULTURE <span style="background: LightGoldenRodYellow">(Details : {[not stated] code '008342' = '008342', given as 'UPPER RESPIRATORYCULTURE'})</span></p><p><b>subject</b>: <a href="urn:oid:0c7313f5-64ea-49f2-8c56-0c01b6f3c74e">urn:oid:0c7313f5-64ea-49f2-8c56-0c01b6f3c74e</a></p><p><b>effective</b>: 27 Jul 1998, 17:58:00 --&gt; (ongoing)</p><p><b>result</b>: <a href="urn:oid:8cadb998-af3d-48f3-94c5-cb954d5ddc14">urn:oid:8cadb998-af3d-48f3-94c5-cb954d5ddc14</a></p></div>
        </text>
        <identifier>
          <system value="LIS"/>
          <value value="8642753100012"/>
        </identifier>
        <identifier>
          <system value="LCS"/>
          <value value="20809880170"/>
        </identifier>
        <status value="final"/>
        <code>
          <coding>
            <code value="008342"/>
            <display value="UPPER RESPIRATORYCULTURE"/>
          </coding>
        </code>
        <subject>
          <reference value="urn:oid:0c7313f5-64ea-49f2-8c56-0c01b6f3c74e"/>
        </subject>
        <effectivePeriod>
          <start value="1998-07-27T17:58:00+01:00"/>
        </effectivePeriod>
        <result>
          <reference value="urn:oid:8cadb998-af3d-48f3-94c5-cb954d5ddc14"/>
        </result>
      </DiagnosticReport>
    </resource>
  </entry>
  <entry>
    <fullUrl value="urn:oid:8cadb998-af3d-48f3-94c5-cb954d5ddc14"/>
    <resource>
      <Observation>
        <id value="8cadb998-af3d-48f3-94c5-cb954d5ddc14"/>
        <text>
          <status value="generated"/><div xmlns="http://www.w3.org/1999/xhtml"><p><b>Generated Narrative with Details</b></p><p><b>id</b>: 8cadb998-af3d-48f3-94c5-cb954d5ddc14</p><p><b>status</b>: final</p><p><b>code</b>: UPPER RESPIRATORY CULTURE <span style="background: LightGoldenRodYellow">(Details : {[not stated] code '008342' = '008342', given as 'UPPER RESPIRATORY CULTURE'})</span></p><p><b>subject</b>: <a href="urn:oid:0c7313f5-64ea-49f2-8c56-0c01b6f3c74e">urn:oid:0c7313f5-64ea-49f2-8c56-0c01b6f3c74e</a></p><p><b>effective</b>: 27 Jul 1998, 17:58:00 --&gt; (ongoing)</p><p><b>value</b>: FINALREPORT</p></div>
        </text>
        <status value="final"/>
        <code>
          <coding>
            <code value="008342"/>
            <display value="UPPER RESPIRATORY CULTURE"/>
          </coding>
        </code>
        <subject>
          <reference value="urn:oid:0c7313f5-64ea-49f2-8c56-0c01b6f3c74e"/>
        </subject>
        <effectivePeriod>
          <start value="1998-07-27T17:58:00+01:00"/>
        </effectivePeriod>
        <valueString value="FINALREPORT"/>
      </Observation>
    </resource>
  </entry>
  <entry>
    <fullUrl value="urn:oid:5f16117e-6b4d-4cfb-8589-266949c24d52"/>
    <resource>
      <DiagnosticReport>
        <id value="5f16117e-6b4d-4cfb-8589-266949c24d52"/>
        <text>
          <status value="generated"/><div xmlns="http://www.w3.org/1999/xhtml"><p><b>Generated Narrative with Details</b></p><p><b>id</b>: 5f16117e-6b4d-4cfb-8589-266949c24d52</p><p><b>identifier</b>: 8642753100012, 20809880170</p><p><b>status</b>: final</p><p><b>code</b>: . <span style="background: LightGoldenRodYellow">(Details : {[not stated] code '997602' = '997602', given as '.'})</span></p><p><b>subject</b>: <a href="urn:oid:0c7313f5-64ea-49f2-8c56-0c01b6f3c74e">urn:oid:0c7313f5-64ea-49f2-8c56-0c01b6f3c74e</a></p><p><b>effective</b>: 27 Jul 1998, 17:58:00 --&gt; (ongoing)</p><p><b>result</b>: </p><ul><li><a href="urn:oid:8fdd63ca-b364-4aed-9345-7631b1a0cf1f">urn:oid:8fdd63ca-b364-4aed-9345-7631b1a0cf1f</a></li><li><a href="urn:oid:14173bed-c7fa-4be5-84e9-9d394053b436">urn:oid:14173bed-c7fa-4be5-84e9-9d394053b436</a></li></ul></div>
        </text>
        <identifier>
          <system value="LIS"/>
          <value value="8642753100012"/>
        </identifier>
        <identifier>
          <system value="LCS"/>
          <value value="20809880170"/>
        </identifier>
        <status value="final"/>
        <code>
          <coding>
            <code value="997602"/>
            <display value="."/>
          </coding>
        </code>
        <subject>
          <reference value="urn:oid:0c7313f5-64ea-49f2-8c56-0c01b6f3c74e"/>
        </subject>
        <effectivePeriod>
          <start value="1998-07-27T17:58:00+01:00"/>
        </effectivePeriod>
        <result>
          <reference value="urn:oid:8fdd63ca-b364-4aed-9345-7631b1a0cf1f"/>
        </result>
        <result>
          <reference value="urn:oid:14173bed-c7fa-4be5-84e9-9d394053b436"/>
        </result>
      </DiagnosticReport>
    </resource>
  </entry>
  <entry>
    <fullUrl value="urn:oid:8fdd63ca-b364-4aed-9345-7631b1a0cf1f"/>
    <resource>
      <Observation>
        <id value="8fdd63ca-b364-4aed-9345-7631b1a0cf1f"/>
        <text>
          <status value="generated"/><div xmlns="http://www.w3.org/1999/xhtml"><p><b>Generated Narrative with Details</b></p><p><b>id</b>: 8fdd63ca-b364-4aed-9345-7631b1a0cf1f</p><p><b>status</b>: final</p><p><b>code</b>: RESULT 1 <span style="background: LightGoldenRodYellow">(Details : {[not stated] code '997231' = '997231', given as 'RESULT 1'})</span></p><p><b>subject</b>: <a href="urn:oid:0c7313f5-64ea-49f2-8c56-0c01b6f3c74e">urn:oid:0c7313f5-64ea-49f2-8c56-0c01b6f3c74e</a></p><p><b>effective</b>: 29 Jul 1998, 16:05:00</p><p><b>value</b>: M415 <span style="background: LightGoldenRodYellow">(Details : {[not stated] code 'M415' = 'M415)</span></p><p><b>comment</b>: MORAXELLA (BRANHAMELLA) CATARRHALIS  HEAVY GROWTH BETA LACTAMASE POSITIVE </p></div>
        </text>
        <status value="final"/>
        <code>
          <coding>
            <code value="997231"/>
            <display value="RESULT 1"/>
          </coding>
        </code>
        <subject>
          <reference value="urn:oid:0c7313f5-64ea-49f2-8c56-0c01b6f3c74e"/>
        </subject>
        <effectiveDateTime value="1998-07-29T16:05:00+01:00"/>
        <valueCodeableConcept>
          <coding>
            <code value="M415"/>
          </coding>
        </valueCodeableConcept>
        <comment value="MORAXELLA (BRANHAMELLA) CATARRHALIS &#xD; HEAVY GROWTH&#xD; BETA LACTAMASE POSITIVE &#xD;"/>
      </Observation>
    </resource>
  </entry>
  <entry>
    <fullUrl value="urn:oid:14173bed-c7fa-4be5-84e9-9d394053b436"/>
    <resource>
      <Observation>
        <id value="14173bed-c7fa-4be5-84e9-9d394053b436"/>
        <text>
          <status value="generated"/><div xmlns="http://www.w3.org/1999/xhtml"><p><b>Generated Narrative with Details</b></p><p><b>id</b>: 14173bed-c7fa-4be5-84e9-9d394053b436</p><p><b>status</b>: final</p><p><b>code</b>: RESULT 2 <span style="background: LightGoldenRodYellow">(Details : {[not stated] code '997232' = '997232', given as 'RESULT 2'})</span></p><p><b>subject</b>: <a href="urn:oid:0c7313f5-64ea-49f2-8c56-0c01b6f3c74e">urn:oid:0c7313f5-64ea-49f2-8c56-0c01b6f3c74e</a></p><p><b>effective</b>: 29 Jul 1998, 16:05:00</p><p><b>value</b>: MR105 <span style="background: LightGoldenRodYellow">(Details : {[not stated] code 'MR105' = 'MR105)</span></p><p><b>comment</b>: ROUTINE RESPIRATORY FLORA</p></div>
        </text>
        <status value="final"/>
        <code>
          <coding>
            <code value="997232"/>
            <display value="RESULT 2"/>
          </coding>
        </code>
        <subject>
          <reference value="urn:oid:0c7313f5-64ea-49f2-8c56-0c01b6f3c74e"/>
        </subject>
        <effectiveDateTime value="1998-07-29T16:05:00+01:00"/>
        <valueCodeableConcept>
          <coding>
            <code value="MR105"/>
          </coding>
        </valueCodeableConcept>
        <comment value="ROUTINE RESPIRATORY FLORA&#xD;"/>
      </Observation>
    </resource>
  </entry>
  <entry>
    <fullUrl value="urn:oid:0c7313f5-64ea-49f2-8c56-0c01b6f3c74e"/>
    <resource>
      <Patient>
        <id value="0c7313f5-64ea-49f2-8c56-0c01b6f3c74e"/>
        <text>
          <status value="generated"/><div xmlns="http://www.w3.org/1999/xhtml"><p><b>Generated Narrative with Details</b></p><p><b>id</b>: 0c7313f5-64ea-49f2-8c56-0c01b6f3c74e</p><p><b>identifier</b>: 20809880170</p><p><b>name</b>: TESTPAT 20809880170 </p><p><b>birthDate</b>: 1976-09-24</p><p><b>address</b>: 00000-0000 </p></div>
        </text>
        <identifier>
          <value value="20809880170"/>
        </identifier>
        <name>
          <family value="20809880170"/>
          <given value="TESTPAT"/>
        </name>
        <birthDate value="1976-09-24"/>
        <address>
          <postalCode value="00000-0000"/>
        </address>
      </Patient>
    </resource>
  </entry>
</Bundle>