<?xml version="1.0" encoding="UTF-8"?>

<Bundle xmlns="http://hl7.org/fhir">
  <id value="ormo01"/>
  <identifier>
    <value value="1391320453338055"/>
  </identifier>
  <type value="message"/>
  <entry>
    <fullUrl value="urn:oid:e32bbfd3-4c05-441c-aa00-e557c0dfe9c6"/>
    <resource>
      <MessageHeader>
        <id value="e32bbfd3-4c05-441c-aa00-e557c0dfe9c6"/>
        <text>
          <status value="generated"/><div xmlns="http://www.w3.org/1999/xhtml"><p><b>Generated Narrative with Details</b></p><p><b>id</b>: e32bbfd3-4c05-441c-aa00-e557c0dfe9c6</p><p><b>event</b>: ORM^O01 (Details: [not stated] code ORM^O01 = 'ORM^O01', stated as 'ORM^O01')</p><h3>Destinations</h3><table class="grid"><tr><td>-</td><td><b>Name</b></td></tr><tr><td>*</td><td>Y06601</td></tr></table><p><b>sender</b>: RCB</p><p><b>timestamp</b>: 10 Oct 2010, 14:18:00</p><p><b>focus</b>: <a href="urn:oid:97aa3d54-5ffe-456e-b865-4ac925c1bfdf">urn:oid:97aa3d54-5ffe-456e-b865-4ac925c1bfdf</a></p></div>
        </text>
        <event>
          <code value="ORM^O01"/>
          <display value="ORM^O01"/>
        </event>
        <destination>
          <name value="Y06601"/>
        </destination>
        <sender>
          <identifier>
            <system value="https://fhir.nhs.uk/Id/ods-organization-code"/>
            <value value="RCB"/>
          </identifier>
          <display value="RCB"/>
        </sender>
        <timestamp value="2010-10-10T14:18:00.000+01:00"/>
        <focus>
          <reference value="urn:oid:97aa3d54-5ffe-456e-b865-4ac925c1bfdf"/>
        </focus>
      </MessageHeader>
    </resource>
  </entry>
  <entry>
    <fullUrl value="urn:oid:97aa3d54-5ffe-456e-b865-4ac925c1bfdf"/>
    <resource>
      <ProcedureRequest>
        <id value="97aa3d54-5ffe-456e-b865-4ac925c1bfdf"/>
        <text>
          <status value="generated"/><div xmlns="http://www.w3.org/1999/xhtml"><p><b>Generated Narrative with Details</b></p><p><b>id</b>: 97aa3d54-5ffe-456e-b865-4ac925c1bfdf</p><p><b>identifier</b>: 20060307110114</p><p><b>code</b>: Asthma medication review <span style="background: LightGoldenRodYellow">(Details : {[not stated] code '394720003' = '394720003', given as 'Asthma medication review'})</span></p><p><b>subject</b>: <a href="urn:oid:a7fbd3dc-d994-4be1-8e02-d34655b954fc">urn:oid:a7fbd3dc-d994-4be1-8e02-d34655b954fc</a></p><p><b>occurrence</b>: 7 Mar 2006, 11:01:14</p><p><b>reasonReference</b>: <a href="urn:oid:339d27fd-d02c-4fb2-80d0-cf249661a1f0">urn:oid:339d27fd-d02c-4fb2-80d0-cf249661a1f0</a></p></div>
        </text>
        <identifier>
          <value value="20060307110114"/>
        </identifier>
        <code>
          <coding>
            <code value="394720003"/>
            <display value="Asthma medication review"/>
          </coding>
        </code>
        <subject>
          <reference value="urn:oid:a7fbd3dc-d994-4be1-8e02-d34655b954fc"/>
        </subject>
        <occurrenceDateTime value="2006-03-07T11:01:14+00:00"/>
        <reasonReference>
          <reference value="urn:oid:339d27fd-d02c-4fb2-80d0-cf249661a1f0"/>
        </reasonReference>
      </ProcedureRequest>
    </resource>
  </entry>
  <entry>
    <fullUrl value="urn:oid:339d27fd-d02c-4fb2-80d0-cf249661a1f0"/>
    <resource>
      <Condition>
        <id value="339d27fd-d02c-4fb2-80d0-cf249661a1f0"/>
        <text>
          <status value="generated"/><div xmlns="http://www.w3.org/1999/xhtml"><p><b>Generated Narrative with Details</b></p><p><b>id</b>: 339d27fd-d02c-4fb2-80d0-cf249661a1f0</p><p><b>code</b>: Severe chronic obstructive pulmonary disease <span style="background: LightGoldenRodYellow">(Details : {[not stated] code '313299006' = '313299006', given as 'Severe chronic obstructive pulmonary disease'})</span></p><p><b>subject</b>: <a href="urn:oid:a7fbd3dc-d994-4be1-8e02-d34655b954fc">urn:oid:a7fbd3dc-d994-4be1-8e02-d34655b954fc</a></p><p><b>onset</b>: 9 Oct 2010, 09:00:00</p><p><b>asserter</b>: Dr Samuel Darwin</p></div>
        </text>
        <code>
          <coding>
            <code value="313299006"/>
            <display value="Severe chronic obstructive pulmonary disease"/>
          </coding>
        </code>
        <subject>
          <reference value="urn:oid:a7fbd3dc-d994-4be1-8e02-d34655b954fc"/>
        </subject>
        <onsetDateTime value="2010-10-09T09:00:00+01:00"/>
        <asserter>
          <identifier>
            <system value="https://fhir.hl7.org.uk/Id/gmc-number"/>
            <value value="C3456789"/>
          </identifier>
          <display value="Dr Samuel Darwin"/>
        </asserter>
      </Condition>
    </resource>
  </entry>
  <entry>
    <fullUrl value="urn:oid:a7fbd3dc-d994-4be1-8e02-d34655b954fc"/>
    <resource>
      <Patient>
        <id value="a7fbd3dc-d994-4be1-8e02-d34655b954fc"/>
        <text>
          <status value="generated"/><div xmlns="http://www.w3.org/1999/xhtml"><p><b>Generated Narrative with Details</b></p><p><b>id</b>: a7fbd3dc-d994-4be1-8e02-d34655b954fc</p><p><b>identifier</b>: 3333333333</p><p><b>name</b>: FREDRICA SMITH </p><p><b>telecom</b>: ph: +441234567890(HOME)</p><p><b>gender</b>: female</p><p><b>birthDate</b>: 1965-12-13</p><p><b>address</b>: MALTON YO32 5TT (HOME)</p></div>
        </text>
        <identifier>
          <extension url="https://fhir.hl7.org.uk/STU3/StructureDefinition/Extension-CareConnect-NHSNumberVerificationStatus-1">
            <valueCodeableConcept>
              <coding>
                <system value="https://fhir.hl7.org.uk/STU3/CodeSystem/CareConnect-NHSNumberVerificationStatus-1"/>
                <code value="01"/>
              </coding>
            </valueCodeableConcept>
          </extension>
          <system value="https://fhir.nhs.uk/Id/nhs-number"/>
          <value value="3333333333"/>
        </identifier>
        <name>
          <family value="SMITH"/>
          <given value="FREDRICA"/>
          <prefix value="MRS"/>
        </name>
        <telecom>
          <system value="phone"/>
          <value value="+441234567890"/>
          <use value="home"/>
        </telecom>
        <gender value="female"/>
        <birthDate value="1965-12-13"/>
        <address>
          <use value="home"/>
          <city value="MALTON"/>
          <district value="NORTH YORKSHIRE"/>
          <postalCode value="YO32 5TT"/>
        </address>
      </Patient>
    </resource>
  </entry>
  <entry>
    <fullUrl value="urn:oid:c8ccff63-899d-41f3-8fc0-faba55f47c86"/>
    <resource>
      <Encounter>
        <id value="c8ccff63-899d-41f3-8fc0-faba55f47c86"/>
        <text>
          <status value="generated"/><div xmlns="http://www.w3.org/1999/xhtml"><p><b>Generated Narrative with Details</b></p><p><b>id</b>: c8ccff63-899d-41f3-8fc0-faba55f47c86</p><p><b>identifier</b>: 2139</p><p><b>status</b>: in-progress</p><p><b>class</b>: emergency (Details: http://hl7.org/fhir/v3/ActCode code EMER = 'emergency', stated as 'emergency')</p><p><b>type</b>: 13 <span style="background: LightGoldenRodYellow">(Details : {https://fhir.nhs.uk/R4/CodeSystem/UKCore-AdmissionMethod code '13' = '13)</span>, 300 <span style="background: LightGoldenRodYellow">(Details : {https://fhir.nhs.uk/STU3/CodeSystem/DCH-Specialty-1 code '300' = '300)</span></p><p><b>subject</b>: <a href="urn:oid:a7fbd3dc-d994-4be1-8e02-d34655b954fc">urn:oid:a7fbd3dc-d994-4be1-8e02-d34655b954fc</a></p><blockquote><p><b>participant</b></p><p><b>type</b>: attender <span style="background: LightGoldenRodYellow">(Details : {http://hl7.org/fhir/v3/ParticipationType code 'ATND' = 'attender', given as 'attender'})</span></p><p><b>individual</b>: Dr Samuel Darwin</p></blockquote><blockquote><p><b>participant</b></p><p><b>type</b>: consultant <span style="background: LightGoldenRodYellow">(Details : {http://hl7.org/fhir/v3/ParticipationType code 'CON' = 'consultant', given as 'consultant'})</span></p><p><b>individual</b>: Dr Samuel Darwin</p></blockquote><blockquote><p><b>participant</b></p><p><b>type</b>: referrer <span style="background: LightGoldenRodYellow">(Details : {http://hl7.org/fhir/v3/ParticipationType code 'REF' = 'referrer', given as 'referrer'})</span></p><p><b>individual</b>: Dr Gregory Townley</p></blockquote><p><b>period</b>: 20 Oct 2010, 17:16:00 --&gt; (ongoing)</p><h3>Hospitalizations</h3><table class="grid"><tr><td>-</td><td><b>AdmitSource</b></td></tr><tr><td>*</td><td>19 <span style="background: LightGoldenRodYellow">(Details : {https://fhir.nhs.uk/R4/CodeSystem/UKCore-SourceOfAdmission code '19' = '19)</span></td></tr></table><h3>Locations</h3><table class="grid"><tr><td>-</td><td><b>Location</b></td><td><b>Status</b></td></tr><tr><td>*</td><td><a href="urn:oid:8f7b818f-3dc9-42fb-8758-dd62d7fd693b">ED</a></td><td>active</td></tr></table></div>
        </text>
        <identifier>
          <system value="http://terminology.hl7.org/CodeSystem/v2-0203"/>
          <value value="2139"/>
        </identifier>
        <status value="in-progress"/>
        <class>
          <system value="http://hl7.org/fhir/v3/ActCode"/>
          <code value="EMER"/>
          <display value="emergency"/>
        </class>
        <type>
          <coding>
            <system value="https://fhir.nhs.uk/R4/CodeSystem/UKCore-AdmissionMethod"/>
            <code value="13"/>
          </coding>
        </type>
        <type>
          <coding>
            <system value="https://fhir.nhs.uk/STU3/CodeSystem/DCH-Specialty-1"/>
            <code value="300"/>
          </coding>
        </type>
        <subject>
          <reference value="urn:oid:a7fbd3dc-d994-4be1-8e02-d34655b954fc"/>
        </subject>
        <participant>
          <type>
            <coding>
              <system value="http://hl7.org/fhir/v3/ParticipationType"/>
              <code value="ATND"/>
              <display value="attender"/>
            </coding>
          </type>
          <individual>
            <identifier>
              <system value="https://fhir.hl7.org.uk/Id/gmc-number"/>
              <value value="C3456789"/>
            </identifier>
            <display value="Dr Samuel Darwin"/>
          </individual>
        </participant>
        <participant>
          <type>
            <coding>
              <system value="http://hl7.org/fhir/v3/ParticipationType"/>
              <code value="CON"/>
              <display value="consultant"/>
            </coding>
          </type>
          <individual>
            <identifier>
              <system value="https://fhir.hl7.org.uk/Id/gmc-number"/>
              <value value="C3456789"/>
            </identifier>
            <display value="Dr Samuel Darwin"/>
          </individual>
        </participant>
        <participant>
          <type>
            <coding>
              <system value="http://hl7.org/fhir/v3/ParticipationType"/>
              <code value="REF"/>
              <display value="referrer"/>
            </coding>
          </type>
          <individual>
            <identifier>
              <system value="https://fhir.hl7.org.uk/Id/gmc-number"/>
              <value value="G5612908"/>
            </identifier>
            <display value="Dr Gregory Townley"/>
          </individual>
        </participant>
        <period>
          <start value="2010-10-20T17:16:00+01:00"/>
        </period>
        <hospitalization>
          <admitSource>
            <coding>
              <system value="https://fhir.nhs.uk/R4/CodeSystem/UKCore-SourceOfAdmission"/>
              <code value="19"/>
            </coding>
          </admitSource>
        </hospitalization>
        <location>
          <location>
            <reference value="urn:oid:8f7b818f-3dc9-42fb-8758-dd62d7fd693b"/>
            <display value="ED"/>
          </location>
          <status value="active"/>
        </location>
      </Encounter>
    </resource>
  </entry>
  <entry>
    <fullUrl value="urn:oid:8f7b818f-3dc9-42fb-8758-dd62d7fd693b"/>
    <resource>
      <Location>
        <id value="8f7b818f-3dc9-42fb-8758-dd62d7fd693b"/>
        <text>
          <status value="generated"/><div xmlns="http://www.w3.org/1999/xhtml"><p><b>Generated Narrative with Details</b></p><p><b>id</b>: 8f7b818f-3dc9-42fb-8758-dd62d7fd693b</p><p><b>identifier</b>: ED</p><p><b>name</b>: ED</p><p><b>managingOrganization</b>: </p><p><b>partOf</b>: </p></div>
        </text>
        <identifier>
          <system value="htttps://fhir.xgenome.co.uk/Id/Ward"/>
          <value value="ED"/>
        </identifier>
        <name value="ED"/>
        <managingOrganization>
          <identifier>
            <system value="https://fhir.nhs.uk/Id/ods-organization-code"/>
            <value value="RCB"/>
          </identifier>
        </managingOrganization>
        <partOf>
          <identifier>
            <system value="https://fhir.nhs.uk/Id/ods-site-code"/>
            <value value="RCB55"/>
          </identifier>
        </partOf>
      </Location>
    </resource>
  </entry>
</Bundle>