{
  "resourceType": "Bundle",
  "id": "ormo01",
  "identifier": {
    "value": "1391320453338055"
  },
  "type": "message",
  "entry": [
    {
      "fullUrl": "urn:oid:e32bbfd3-4c05-441c-aa00-e557c0dfe9c6",
      "resource": {
        "resourceType": "MessageHeader",
        "id": "e32bbfd3-4c05-441c-aa00-e557c0dfe9c6",
        "text": {
          "status": "generated",
          "div": "<div xmlns=\"http://www.w3.org/1999/xhtml\"><p><b>Generated Narrative with Details</b></p><p><b>id</b>: e32bbfd3-4c05-441c-aa00-e557c0dfe9c6</p><p><b>event</b>: ORM^O01 (Details: [not stated] code ORM^O01 = 'ORM^O01', stated as 'ORM^O01')</p><h3>Destinations</h3><table class=\"grid\"><tr><td>-</td><td><b>Name</b></td></tr><tr><td>*</td><td>Y06601</td></tr></table><p><b>sender</b>: RCB</p><p><b>timestamp</b>: 10 Oct 2010, 14:18:00</p><p><b>focus</b>: <a href=\"urn:oid:97aa3d54-5ffe-456e-b865-4ac925c1bfdf\">urn:oid:97aa3d54-5ffe-456e-b865-4ac925c1bfdf</a></p></div>"
        },
        "event": {
          "code": "ORM^O01",
          "display": "ORM^O01"
        },
        "destination": [
          {
            "name": "Y06601"
          }
        ],
        "sender": {
          "identifier": {
            "system": "https://fhir.nhs.uk/Id/ods-organization-code",
            "value": "RCB"
          },
          "display": "RCB"
        },
        "timestamp": "2010-10-10T14:18:00.000+01:00",
        "focus": [
          {
            "reference": "urn:oid:97aa3d54-5ffe-456e-b865-4ac925c1bfdf"
          }
        ]
      }
    },
    {
      "fullUrl": "urn:oid:97aa3d54-5ffe-456e-b865-4ac925c1bfdf",
      "resource": {
        "resourceType": "ProcedureRequest",
        "id": "97aa3d54-5ffe-456e-b865-4ac925c1bfdf",
        "text": {
          "status": "generated",
          "div": "<div xmlns=\"http://www.w3.org/1999/xhtml\"><p><b>Generated Narrative with Details</b></p><p><b>id</b>: 97aa3d54-5ffe-456e-b865-4ac925c1bfdf</p><p><b>identifier</b>: 20060307110114</p><p><b>code</b>: Asthma medication review <span style=\"background: LightGoldenRodYellow\">(Details : {[not stated] code '394720003' = '394720003', given as 'Asthma medication review'})</span></p><p><b>subject</b>: <a href=\"urn:oid:a7fbd3dc-d994-4be1-8e02-d34655b954fc\">urn:oid:a7fbd3dc-d994-4be1-8e02-d34655b954fc</a></p><p><b>occurrence</b>: 7 Mar 2006, 11:01:14</p><p><b>reasonReference</b>: <a href=\"urn:oid:339d27fd-d02c-4fb2-80d0-cf249661a1f0\">urn:oid:339d27fd-d02c-4fb2-80d0-cf249661a1f0</a></p></div>"
        },
        "identifier": [
          {
            "value": "20060307110114"
          }
        ],
        "code": {
          "coding": [
            {
              "code": "394720003",
              "display": "Asthma medication review"
            }
          ]
        },
        "subject": {
          "reference": "urn:oid:a7fbd3dc-d994-4be1-8e02-d34655b954fc"
        },
        "occurrenceDateTime": "2006-03-07T11:01:14+00:00",
        "reasonReference": [
          {
            "reference": "urn:oid:339d27fd-d02c-4fb2-80d0-cf249661a1f0"
          }
        ]
      }
    },
    {
      "fullUrl": "urn:oid:339d27fd-d02c-4fb2-80d0-cf249661a1f0",
      "resource": {
        "resourceType": "Condition",
        "id": "339d27fd-d02c-4fb2-80d0-cf249661a1f0",
        "text": {
          "status": "generated",
          "div": "<div xmlns=\"http://www.w3.org/1999/xhtml\"><p><b>Generated Narrative with Details</b></p><p><b>id</b>: 339d27fd-d02c-4fb2-80d0-cf249661a1f0</p><p><b>code</b>: Severe chronic obstructive pulmonary disease <span style=\"background: LightGoldenRodYellow\">(Details : {[not stated] code '313299006' = '313299006', given as 'Severe chronic obstructive pulmonary disease'})</span></p><p><b>subject</b>: <a href=\"urn:oid:a7fbd3dc-d994-4be1-8e02-d34655b954fc\">urn:oid:a7fbd3dc-d994-4be1-8e02-d34655b954fc</a></p><p><b>onset</b>: 9 Oct 2010, 09:00:00</p><p><b>asserter</b>: Dr Samuel Darwin</p></div>"
        },
        "code": {
          "coding": [
            {
              "code": "313299006",
              "display": "Severe chronic obstructive pulmonary disease"
            }
          ]
        },
        "subject": {
          "reference": "urn:oid:a7fbd3dc-d994-4be1-8e02-d34655b954fc"
        },
        "onsetDateTime": "2010-10-09T09:00:00+01:00",
        "asserter": {
          "identifier": {
            "system": "https://fhir.hl7.org.uk/Id/gmc-number",
            "value": "C3456789"
          },
          "display": "Dr Samuel Darwin"
        }
      }
    },
    {
      "fullUrl": "urn:oid:a7fbd3dc-d994-4be1-8e02-d34655b954fc",
      "resource": {
        "resourceType": "Patient",
        "id": "a7fbd3dc-d994-4be1-8e02-d34655b954fc",
        "text": {
          "status": "generated",
          "div": "<div xmlns=\"http://www.w3.org/1999/xhtml\"><p><b>Generated Narrative with Details</b></p><p><b>id</b>: a7fbd3dc-d994-4be1-8e02-d34655b954fc</p><p><b>identifier</b>: 3333333333</p><p><b>name</b>: FREDRICA SMITH </p><p><b>telecom</b>: ph: +441234567890(HOME)</p><p><b>gender</b>: female</p><p><b>birthDate</b>: 1965-12-13</p><p><b>address</b>: MALTON YO32 5TT (HOME)</p></div>"
        },
        "identifier": [
          {
            "extension": [
              {
                "url": "https://fhir.hl7.org.uk/STU3/StructureDefinition/Extension-CareConnect-NHSNumberVerificationStatus-1",
                "valueCodeableConcept": {
                  "coding": [
                    {
                      "system": "https://fhir.hl7.org.uk/STU3/CodeSystem/CareConnect-NHSNumberVerificationStatus-1",
                      "code": "01"
                    }
                  ]
                }
              }
            ],
            "system": "https://fhir.nhs.uk/Id/nhs-number",
            "value": "3333333333"
          }
        ],
        "name": [
          {
            "family": "SMITH",
            "given": [
              "FREDRICA"
            ],
            "prefix": [
              "MRS"
            ]
          }
        ],
        "telecom": [
          {
            "system": "phone",
            "value": "+441234567890",
            "use": "home"
          }
        ],
        "gender": "female",
        "birthDate": "1965-12-13",
        "address": [
          {
            "use": "home",
            "city": "MALTON",
            "district": "NORTH YORKSHIRE",
            "postalCode": "YO32 5TT"
          }
        ]
      }
    },
    {
      "fullUrl": "urn:oid:c8ccff63-899d-41f3-8fc0-faba55f47c86",
      "resource": {
        "resourceType": "Encounter",
        "id": "c8ccff63-899d-41f3-8fc0-faba55f47c86",
        "text": {
          "status": "generated",
          "div": "<div xmlns=\"http://www.w3.org/1999/xhtml\"><p><b>Generated Narrative with Details</b></p><p><b>id</b>: c8ccff63-899d-41f3-8fc0-faba55f47c86</p><p><b>identifier</b>: 2139</p><p><b>status</b>: in-progress</p><p><b>class</b>: emergency (Details: http://hl7.org/fhir/v3/ActCode code EMER = 'emergency', stated as 'emergency')</p><p><b>type</b>: 13 <span style=\"background: LightGoldenRodYellow\">(Details : {https://fhir.nhs.uk/R4/CodeSystem/UKCore-AdmissionMethod code '13' = '13)</span>, 300 <span style=\"background: LightGoldenRodYellow\">(Details : {https://fhir.nhs.uk/STU3/CodeSystem/DCH-Specialty-1 code '300' = '300)</span></p><p><b>subject</b>: <a href=\"urn:oid:a7fbd3dc-d994-4be1-8e02-d34655b954fc\">urn:oid:a7fbd3dc-d994-4be1-8e02-d34655b954fc</a></p><blockquote><p><b>participant</b></p><p><b>type</b>: attender <span style=\"background: LightGoldenRodYellow\">(Details : {http://hl7.org/fhir/v3/ParticipationType code 'ATND' = 'attender', given as 'attender'})</span></p><p><b>individual</b>: Dr Samuel Darwin</p></blockquote><blockquote><p><b>participant</b></p><p><b>type</b>: consultant <span style=\"background: LightGoldenRodYellow\">(Details : {http://hl7.org/fhir/v3/ParticipationType code 'CON' = 'consultant', given as 'consultant'})</span></p><p><b>individual</b>: Dr Samuel Darwin</p></blockquote><blockquote><p><b>participant</b></p><p><b>type</b>: referrer <span style=\"background: LightGoldenRodYellow\">(Details : {http://hl7.org/fhir/v3/ParticipationType code 'REF' = 'referrer', given as 'referrer'})</span></p><p><b>individual</b>: Dr Gregory Townley</p></blockquote><p><b>period</b>: 20 Oct 2010, 17:16:00 --&gt; (ongoing)</p><h3>Hospitalizations</h3><table class=\"grid\"><tr><td>-</td><td><b>AdmitSource</b></td></tr><tr><td>*</td><td>19 <span style=\"background: LightGoldenRodYellow\">(Details : {https://fhir.nhs.uk/R4/CodeSystem/UKCore-SourceOfAdmission code '19' = '19)</span></td></tr></table><h3>Locations</h3><table class=\"grid\"><tr><td>-</td><td><b>Location</b></td><td><b>Status</b></td></tr><tr><td>*</td><td><a href=\"urn:oid:8f7b818f-3dc9-42fb-8758-dd62d7fd693b\">ED</a></td><td>active</td></tr></table></div>"
        },
        "identifier": [
          {
            "system": "http://terminology.hl7.org/CodeSystem/v2-0203",
            "value": "2139"
          }
        ],
        "status": "in-progress",
        "class": {
          "system": "http://hl7.org/fhir/v3/ActCode",
          "code": "EMER",
          "display": "emergency"
        },
        "type": [
          {
            "coding": [
              {
                "system": "https://fhir.nhs.uk/R4/CodeSystem/UKCore-AdmissionMethod",
                "code": "13"
              }
            ]
          },
          {
            "coding": [
              {
                "system": "https://fhir.nhs.uk/STU3/CodeSystem/DCH-Specialty-1",
                "code": "300"
              }
            ]
          }
        ],
        "subject": {
          "reference": "urn:oid:a7fbd3dc-d994-4be1-8e02-d34655b954fc"
        },
        "participant": [
          {
            "type": [
              {
                "coding": [
                  {
                    "system": "http://hl7.org/fhir/v3/ParticipationType",
                    "code": "ATND",
                    "display": "attender"
                  }
                ]
              }
            ],
            "individual": {
              "identifier": {
                "system": "https://fhir.hl7.org.uk/Id/gmc-number",
                "value": "C3456789"
              },
              "display": "Dr Samuel Darwin"
            }
          },
          {
            "type": [
              {
                "coding": [
                  {
                    "system": "http://hl7.org/fhir/v3/ParticipationType",
                    "code": "CON",
                    "display": "consultant"
                  }
                ]
              }
            ],
            "individual": {
              "identifier": {
                "system": "https://fhir.hl7.org.uk/Id/gmc-number",
                "value": "C3456789"
              },
              "display": "Dr Samuel Darwin"
            }
          },
          {
            "type": [
              {
                "coding": [
                  {
                    "system": "http://hl7.org/fhir/v3/ParticipationType",
                    "code": "REF",
                    "display": "referrer"
                  }
                ]
              }
            ],
            "individual": {
              "identifier": {
                "system": "https://fhir.hl7.org.uk/Id/gmc-number",
                "value": "G5612908"
              },
              "display": "Dr Gregory Townley"
            }
          }
        ],
        "period": {
          "start": "2010-10-20T17:16:00+01:00"
        },
        "hospitalization": {
          "admitSource": {
            "coding": [
              {
                "system": "https://fhir.nhs.uk/R4/CodeSystem/UKCore-SourceOfAdmission",
                "code": "19"
              }
            ]
          }
        },
        "location": [
          {
            "location": {
              "reference": "urn:oid:8f7b818f-3dc9-42fb-8758-dd62d7fd693b",
              "display": "ED"
            },
            "status": "active"
          }
        ]
      }
    },
    {
      "fullUrl": "urn:oid:8f7b818f-3dc9-42fb-8758-dd62d7fd693b",
      "resource": {
        "resourceType": "Location",
        "id": "8f7b818f-3dc9-42fb-8758-dd62d7fd693b",
        "text": {
          "status": "generated",
          "div": "<div xmlns=\"http://www.w3.org/1999/xhtml\"><p><b>Generated Narrative with Details</b></p><p><b>id</b>: 8f7b818f-3dc9-42fb-8758-dd62d7fd693b</p><p><b>identifier</b>: ED</p><p><b>name</b>: ED</p><p><b>managingOrganization</b>: </p><p><b>partOf</b>: </p></div>"
        },
        "identifier": [
          {
            "system": "htttps://fhir.xgenome.co.uk/Id/Ward",
            "value": "ED"
          }
        ],
        "name": "ED",
        "managingOrganization": {
          "identifier": {
            "system": "https://fhir.nhs.uk/Id/ods-organization-code",
            "value": "RCB"
          }
        },
        "partOf": {
          "identifier": {
            "system": "https://fhir.nhs.uk/Id/ods-site-code",
            "value": "RCB55"
          }
        }
      }
    }
  ]
}