<?xml version="1.0" encoding="UTF-8"?>

<Bundle xmlns="http://hl7.org/fhir">
  <id value="ambulance-request"/>
  <meta>
    <lastUpdated value="2015-02-12T21:00:00+00:00"/>
    <profile value="https://fhir.nhs.uk/STU3/StructureDefinition/ITK-Document-Bundle-1"/>
  </meta>
  <identifier>
    <system value="https://tools.ietf.org/html/rfc4122"/>
    <value value="e3035910-045c-4329-a0f5-d8fa8be430df"/>
  </identifier>
  <type value="document"/>
<!-- Emergency Care Composition -->
  <entry>
    <fullUrl value="urn:uuid:9009fdb0-e03c-498e-ad94-3b5a6d92ff4e"/>
  <!-- A resource carrying a set of healthcare-related information about the patient -->
    <resource>
      <Composition>
        <id value="9009fdb0-e03c-498e-ad94-3b5a6d92ff4e"/>
        <meta>
          <profile value="https://fhir.nhs.uk/STU3/StructureDefinition/CareConnect-ITK-ECD-Composition-1"/>
        </meta>
        <text>
          <status value="generated"/><div xmlns="http://www.w3.org/1999/xhtml"><p><b>Generated Narrative with Details</b></p><p><b>id</b>: 9009fdb0-e03c-498e-ad94-3b5a6d92ff4e</p><p><b>meta</b>: </p><p><b>identifier</b>: 62edf674-8722-44b4-9557-4e1b6d68c1fe</p><p><b>status</b>: final</p><p><b>type</b>: NHS 111 Final Ambulance Request <span style="background: LightGoldenRodYellow">(Details : {SNOMED CT code '828801000000101' = '828801000000101', given as 'NHS 111 Final Ambulance Request'})</span></p><p><b>encounter</b>: <a href="#backboneelement_498f47b8-8ae1-48c5-9dc1-c5d3b9eb0ab7">Generated Summary: unknown resource entry</a></p><p><b>date</b>: 11 May 2011, 21:00:00</p><p><b>author</b>: <a href="#backboneelement_2a1022dd-a998-41a1-9941-71a413ee9172">Generated Summary: unknown resource entry</a></p><p><b>title</b>: NHS 111 Final Ambulance Request</p><p><b>custodian</b>: <a href="#backboneelement_1a513009-ec68-4ee8-b279-4cad6545c6ec">Generated Summary: unknown resource entry</a></p></div>
        </text>
      <!--  Extension to carry details of the Correspondence Care Setting Type.  -->
        <extension url="https://fhir.hl7.org.uk/STU3/StructureDefinition/Extension-CareConnect-CareSettingType-1">
          <valueCodeableConcept>
            <coding>
              <system value="http://snomed.info/sct"/>
              <code value="394576009"/>
              <display value="Accident &amp; emergency"/>
            </coding>
          </valueCodeableConcept>
        </extension>
        <identifier>
          <system value="https://tools.ietf.org/html/rfc4122"/>
          <value value="62edf674-8722-44b4-9557-4e1b6d68c1fe"/>
        </identifier>
      <!-- The workflow/clinical status of this composition. 
 The status is a marker for the clinical standing of the document. -->
        <status value="final"/>
        <type>
          <coding>
            <system value="http://snomed.info/sct"/>
            <code value="828801000000101"/>
            <display value="NHS 111 Final Ambulance Request"/>
          </coding>
        </type>
      <!-- Reference to the patient subject of the Composition -->
        <subject>
          <reference value="urn:uuid:e228e899-f437-4927-b5c5-4786dce9dc43"/>
        </subject>
      <!-- Reference to the clinical encounter or type of care this documentation is associated with. -->
        <encounter>
          <reference value="urn:uuid:498f47b8-8ae1-48c5-9dc1-c5d3b9eb0ab7"/>
        </encounter>
      <!-- The composition editing time, when the composition was last logically changed by the author. -->
        <date value="2011-05-11T20:00:00+00:00"/>
      <!-- Identifies who is responsible for the information in the composition, 
 not necessarily who typed it in -->
        <author>
          <reference value="urn:uuid:2a1022dd-a998-41a1-9941-71a413ee9172"/>
        </author>
        <title value="NHS 111 Final Ambulance Request"/>
      <!-- Identifies the organization responsible for ongoing maintenance of and 
 access to the composition/document information. -->
        <custodian>
          <reference value="urn:uuid:1a513009-ec68-4ee8-b279-4cad6545c6ec"/>
        </custodian>
        <section>
          <title value="NHS 111 Final Ambulance Request"/>
          <code>
            <coding>
              <system value="http://snomed.info/sct"/>
              <code value="886791000000105"/>
              <display value="Handover details"/>
            </coding>
          </code>
          <text>
            <status value="additional"/><div xmlns="http://www.w3.org/1999/xhtml">
                            No text section is provided in the Ambulance Request Message (it is all structured)
                        </div>
          </text>
          <entry>
          <!--  Reference to Encounter  -->
            <reference value="urn:uuid:498f47b8-8ae1-48c5-9dc1-c5d3b9eb0ab7"/>
          </entry>
          <entry>
          <!--  Reference to ReferralRequest  -->
            <reference value="urn:uuid:5885c08d-e1c9-43ff-ae1b-aedb38067908"/>
          </entry>
        </section>
      <!--  Patient Demographics  -->
        <section>
          <title value="Patient Demographics"/>
          <code>
            <coding>
              <system value="http://snomed.info/sct"/>
              <code value="886731000000109"/>
              <display value="Patient Demographics"/>
            </coding>
          </code>
          <text>
            <status value="additional"/><div xmlns="http://www.w3.org/1999/xhtml">
                            No text section is provided in the Ambulance Request Message (it is all structured)
                        </div>
          </text>
        <!-- Reference to Patient -->
          <entry>
            <reference value="urn:uuid:e228e899-f437-4927-b5c5-4786dce9dc43"/>
          </entry>
        </section>
      <!-- Attendance details -->
        <section>
          <title value="Consent for information sharing"/>
          <code>
            <coding>
              <system value="http://snomed.info/sct"/>
              <code value="887031000000108"/>
              <display value="Consent for information sharing"/>
            </coding>
          </code>
          <text>
            <status value="additional"/><div xmlns="http://www.w3.org/1999/xhtml">
                            <table>
                            <tbody>
                                <tr>
                                    <th class="default">Permission to view outcome</th>
                                    <td>Permission to view obtained</td>
                                </tr>
                                <tr>
                                    <th class="default">Date obtained</th>
                                    <td>19-May-2011, 20:00</td>
                                </tr>
                                <tr>
                                    <th class="default">Date expires</th>
                                    <td>26-May-2011, 20:00</td>
                                </tr>
                            </tbody>
                            </table>
                        </div>
          </text>
          <entry>
            <reference value="urn:uuid:679091ff-f273-40fc-a560-44594b6454eb"/>
          </entry>
        </section>
      <!-- Clinical narrative -->
        <section>
          <title value="Presenting complaints or issues"/>
          <code>
            <coding>
              <system value="http://snomed.info/sct"/>
              <code value="886891000000102"/>
              <display value="Presenting complaints or issues"/>
            </coding>
          </code>
          <text>
            <status value="additional"/><div xmlns="http://www.w3.org/1999/xhtml">
                            Patient has an insect bite.
                        </div>
          </text>
        </section>
      <!-- Contact for further information -->
        <section>
          <title value="Case Summary"/>
          <code>
            <coding>
              <system value="http://snomed.info/sct"/>
              <code value="887181000000106"/>
              <display value="Clinical summary "/>
            </coding>
          </code>
          <text>
            <status value="additional"/><div xmlns="http://www.w3.org/1999/xhtml">
                            Patient: Joe Bloggs Disposition: Go to the nearest Emergency Department within 4 hours.<br/> 
                            Selected care service: Dx009 Pathways Assessment: An injury or other health problem was described.<br/> 
                            The individual was described as breathing and conscious. <br/>
                            Loss of at least a mugful of blood in the last 30 minutes was not described.<br/> 
                            An illness or other health problem was described. - Insect Bite Fighting for breath was not described. <br/>
                            A heart attack, chest/upper back pain, recent probable stroke, recent fit/seizure or suicide attempt was not described as the main call reason. <br/>
                            New confusion, a diabetic hypo, a probable allergic reaction or successful resuscitation was not described as being the main call reason.<br/> 
                            The individual was described as being warm to touch. <br/>
                            An insect or spider bite or sting was described. - Tick Bite A sting/bite occurring within the last hour was not described. <br/>
                            10 or more stings were not described. <br/>
                            Nausea or vomiting since the sting was not described.<br/> 
                            A sting involving the eyes or mouth was not described. <br/>
                            A fever was not described. An insect still attached to the skin was described. <br/>
                            A tick bite was described. Advice given: Remove any jewellery or tight clothing from the area. <br/>
                            Antihistamine medication and creams help reduce swelling and itching.<br/> 
                            They can be bought from pharmacies. <br/>
                            Talk to the pharmacist for advice.<br/> 
                            Follow the instructions in the pack. <br/>
                            Unless advised not to, or they have already been given, paracetamol or ibuprofen can be used to relieve pain.<br/> 
                            Follow the instructions in the pack. If in doubt ask a pharmacist.<br/>
                        </div>
          </text>
        </section>
        <section>
          <title value="Patient Special Notes"/>
          <code>
            <coding>
              <system value="http://snomed.info/sct"/>
              <code value="886741000000100"/>
              <display value="Special requirements"/>
            </coding>
          </code>
          <text>
            <status value="generated"/><div xmlns="http://www.w3.org/1999/xhtml">
                            Patient has history of violence towards health care professionals
                        </div>
          </text>
        </section>
      </Composition>
    </resource>
  </entry>
<!-- Encounter Example 1 -->
  <entry>
    <fullUrl value="urn:uuid:498f47b8-8ae1-48c5-9dc1-c5d3b9eb0ab7"/>
  <!-- Encounter resource providing context for the discharge -->
    <resource>
      <Encounter>
        <id value="498f47b8-8ae1-48c5-9dc1-c5d3b9eb0ab7"/>
        <text>
          <status value="generated"/><div xmlns="http://www.w3.org/1999/xhtml"><p><b>Generated Narrative with Details</b></p><p><b>id</b>: 498f47b8-8ae1-48c5-9dc1-c5d3b9eb0ab7</p><p><b>identifier</b>: LOCAL-HP54, NHS111-234567890</p><p><b>status</b>: finished</p><p><b>class</b>: ambulatory (Details: http://hl7.org/fhir/v3/ActCode code AMB = 'ambulatory', stated as 'ambulatory')</p><p><b>type</b>: Telephone triage encounter <span style="background: LightGoldenRodYellow">(Details : {SNOMED CT code '401267002' = 'Telephone triage encounter (procedure)', given as 'Telephone triage encounter'})</span></p><p><b>subject</b>: <a href="#backboneelement_e228e899-f437-4927-b5c5-4786dce9dc43">Generated Summary: unknown resource entry</a></p><h3>Participants</h3><table class="grid"><tr><td>-</td><td><b>Individual</b></td></tr><tr><td>*</td><td><a href="#backboneelement_2a1022dd-a998-41a1-9941-71a413ee9172">Mr Harry Parker. Generated Summary: unknown resource entry</a></td></tr></table><p><b>period</b>: 19 May 2011, 20:45:00 --&gt; 19 May 2011, 21:15:00</p><h3>Hospitalizations</h3><table class="grid"><tr><td>-</td><td><b>DischargeDisposition</b></td></tr><tr><td>*</td><td>Blood loss - urgent care require <span style="background: LightGoldenRodYellow">(Details : {urn:oid:2.16.840.1.113883.2.1.3.2.4.17.414 code 'Dx009' = 'Dx009', given as 'Blood loss - urgent care require'})</span></td></tr></table><h3>Locations</h3><table class="grid"><tr><td>-</td><td><b>Location</b></td></tr><tr><td>*</td><td><a href="#backboneelement_6200f9ee-4d77-4d0f-8da1-b0bc4db0000d">Generated Summary: unknown resource entry</a></td></tr></table><p><b>serviceProvider</b>: <a href="#backboneelement_1a513009-ec68-4ee8-b279-4cad6545c6ec">NHS 111 Call Centre Chelmsford. Generated Summary: unknown resource entry</a></p></div>
        </text>
        <identifier>
          <system value="https://fhir.medway111.nhs.uk/case-id"/>
          <value value="LOCAL-HP54"/>
        </identifier>
        <identifier>
          <system value="https://fhir.medway111.nhs.uk/case-reference"/>
          <value value="NHS111-234567890"/>
        </identifier>
        <status value="finished"/>
        <class>
          <system value="http://hl7.org/fhir/v3/ActCode"/>
          <code value="AMB"/>
          <display value="ambulatory"/>
        </class>
      <!-- Specific type of encounter -->
        <type>
          <coding>
            <system value="http://snomed.info/sct"/>
            <code value="401267002"/>
            <display value="Telephone triage encounter"/>
          </coding>
        </type>
      <!-- Reference to the patient as the subject of the Encounter -->
        <subject>
          <reference value="urn:uuid:e228e899-f437-4927-b5c5-4786dce9dc43"/>
        </subject>
        <participant>
          <individual>
            <reference value="urn:uuid:2a1022dd-a998-41a1-9941-71a413ee9172"/>
            <display value="Mr Harry Parker"/>
          </individual>
        </participant>
        <serviceProvider>
          <reference value="urn:uuid:1a513009-ec68-4ee8-b279-4cad6545c6ec"/>
          <display value="NHS 111 Call Centre Chelmsford"/>
        </serviceProvider>
        <period>
          <start value="2011-05-19T19:45:00+00:00"/>
          <end value="2011-05-19T20:15:00+00:00"/>
        </period>
        <location>
          <location>
            <reference value="urn:uuid:6200f9ee-4d77-4d0f-8da1-b0bc4db0000d"/>
          </location>
        </location>
        <hospitalization>
        <!-- Category or kind of location after discharge -->
          <dischargeDisposition>
            <coding>
              <system value="urn:oid:2.16.840.1.113883.2.1.3.2.4.17.414"/>
              <code value="Dx009"/>
              <display value="Blood loss - urgent care require"/>
            </coding>
          </dischargeDisposition>
        </hospitalization>
      </Encounter>
    </resource>
  </entry>
  <entry>
    <fullUrl value="urn:uuid:e228e899-f437-4927-b5c5-4786dce9dc43"/>
    <resource>
      <Patient>
        <id value="e228e899-f437-4927-b5c5-4786dce9dc43"/>
        <meta>
          <profile value="https://fhir.hl7.org.uk/STU3/StructureDefinition/CareConnect-Patient-1"/>
        </meta>
        <text>
          <status value="generated"/><div xmlns="http://www.w3.org/1999/xhtml"><p><b>Generated Narrative with Details</b></p><p><b>id</b>: e228e899-f437-4927-b5c5-4786dce9dc43</p><p><b>meta</b>: </p><p><b>identifier</b>: 5689098431</p><p><b>name</b>: Jack Assington (OFFICIAL)</p><p><b>telecom</b>: ph: 0765478574(HOME)</p><p><b>gender</b>: male</p><p><b>birthDate</b>: 1976-01-08</p><p><b>address</b>: 7 Lime Avenue Chelmsford ME5 FS3 </p><h3>Contacts</h3><table class="grid"><tr><td>-</td><td><b>Relationship</b></td><td><b>Name</b></td><td><b>Telecom</b></td><td><b>Address</b></td><td><b>Gender</b></td></tr><tr><td>*</td><td>Emergency Contact <span style="background: LightGoldenRodYellow">(Details : {http://hl7.org/fhir/v2/0131 code 'C' = 'Emergency Contact', given as 'Emergency Contact'})</span></td><td>Perry Wiggins </td><td>ph: 076651234567(TEMP)</td><td>43 Summers Avenue Somerset Street Medway ME5 7TY </td><td>male</td></tr></table><p><b>managingOrganization</b>: <a href="#backboneelement_a0ff2363-f00d-4542-9f6a-624e71513ebf">The Surgery. Generated Summary: unknown resource entry</a></p></div>
        </text>
        <identifier>
          <extension url="https://fhir.hl7.org.uk/STU3/StructureDefinition/Extension-CareConnect-NHSNumberVerificationStatus-1">
            <valueCodeableConcept>
              <coding>
                <system value="https://fhir.hl7.org.uk/STU3/CodeSystem/CareConnect-NHSNumberVerificationStatus-1"/>
                <code value="01"/>
                <display value="Number present and verified"/>
              </coding>
            </valueCodeableConcept>
          </extension>
          <system value="https://fhir.nhs.uk/Id/nhs-number"/>
          <value value="5689098431"/>
        </identifier>
        <name>
          <use value="official"/>
          <family value="Assington"/>
          <given value="Jack"/>
          <prefix value="Mr"/>
        </name>
        <gender value="male"/>
        <birthDate value="1976-01-08"/>
        <telecom>
          <use value="home"/>
          <system value="phone"/>
          <value value="0765478574"/>
        </telecom>
        <address>
          <line value="7 Lime Avenue"/>
          <city value="Chelmsford"/>
          <district value="Essex"/>
          <postalCode value="ME5 FS3"/>
        </address>
        <contact>
          <name>
            <use value="usual"/>
            <family value="Wiggins"/>
            <given value="Perry"/>
          </name>
          <relationship>
            <coding>
              <system value="http://hl7.org/fhir/v2/0131"/>
              <code value="C"/>
              <display value="Emergency Contact"/>
            </coding>
          </relationship>
          <gender value="male"/>
          <telecom>
            <system value="phone"/>
            <use value="temp"/>
            <value value="076651234567"/>
          </telecom>
          <address>
            <line value="43 Summers Avenue"/>
            <line value="Somerset Street"/>
            <city value="Medway"/>
            <postalCode value="ME5 7TY"/>
          </address>
        </contact>
        <managingOrganization>
          <reference value="urn:uuid:a0ff2363-f00d-4542-9f6a-624e71513ebf"/>
          <display value="The Surgery"/>
        </managingOrganization>
      </Patient>
    </resource>
  </entry>
<!-- Practitioner-Example-1 -->
  <entry>
    <fullUrl value="urn:uuid:2a1022dd-a998-41a1-9941-71a413ee9172"/>
    <resource>
      <Practitioner>
        <id value="2a1022dd-a998-41a1-9941-71a413ee9172"/>
        <meta>
          <profile value="https://fhir.hl7.org.uk/STU3/StructureDefinition/CareConnect-Practitioner-1"/>
        </meta>
        <text>
          <status value="generated"/><div xmlns="http://www.w3.org/1999/xhtml"><p><b>Generated Narrative with Details</b></p><p><b>id</b>: 2a1022dd-a998-41a1-9941-71a413ee9172</p><p><b>meta</b>: </p><p><b>name</b>: Harry Parker </p></div>
        </text>
        <name>
          <family value="Parker"/>
          <given value="Harry"/>
        </name>
      </Practitioner>
    </resource>
  </entry>
  <entry>
    <fullUrl value="urn:uuid:2e8d26d7-1447-4e0e-a03e-3ab9897cd0ad"/>
    <resource>
      <PractitionerRole>
        <id value="2e8d26d7-1447-4e0e-a03e-3ab9897cd0ad"/>
        <meta>
          <profile value="https://fhir.hl7.org.uk/STU3/StructureDefinition/CareConnect-PractitionerRole-1"/>
        </meta>
        <text>
          <status value="generated"/><div xmlns="http://www.w3.org/1999/xhtml"><p><b>Generated Narrative with Details</b></p><p><b>id</b>: 2e8d26d7-1447-4e0e-a03e-3ab9897cd0ad</p><p><b>meta</b>: </p><p><b>identifier</b>: 8666463078</p><p><b>practitioner</b>: <a href="#backboneelement_2a1022dd-a998-41a1-9941-71a413ee9172">Generated Summary: unknown resource entry</a></p><p><b>organization</b>: <a href="#backboneelement_1a513009-ec68-4ee8-b279-4cad6545c6ec">NHS 111 Call Centre Chelmsford. Generated Summary: unknown resource entry</a></p><p><b>code</b>: Call Handler level 1 <span style="background: LightGoldenRodYellow">(Details : {urn:oid:2.16.840.1.113883.2.1.3.2.4.17.196 code 'CH1' = 'CH1', given as 'Call Handler level 1'})</span></p><p><b>telecom</b>: harry.parker@nhs.net, ph: 0123456789</p></div>
        </text>
        <identifier>
          <system value="https://fhir.nhs.uk/Id/sds-role-profile-id"/>
          <value value="8666463078"/>
        </identifier>
        <code>
          <coding>
            <system value="urn:oid:2.16.840.1.113883.2.1.3.2.4.17.196"/>
            <code value="CH1"/>
            <display value="Call Handler level 1"/>
          </coding>
        </code>
        <telecom>
          <system value="email"/>
          <value value="harry.parker@nhs.net"/>
        </telecom>
        <telecom>
          <system value="phone"/>
          <value value="0123456789"/>
        </telecom>
        <practitioner>
          <reference value="urn:uuid:2a1022dd-a998-41a1-9941-71a413ee9172"/>
        </practitioner>
        <organization>
          <reference value="urn:uuid:1a513009-ec68-4ee8-b279-4cad6545c6ec"/>
          <display value="NHS 111 Call Centre Chelmsford"/>
        </organization>
      </PractitionerRole>
    </resource>
  </entry>
  <entry>
    <fullUrl value="urn:uuid:1a513009-ec68-4ee8-b279-4cad6545c6ec"/>
    <resource>
      <Organization>
        <id value="1a513009-ec68-4ee8-b279-4cad6545c6ec"/>
        <meta>
          <profile value="https://fhir.hl7.org.uk/STU3/StructureDefinition/CareConnect-Organization-1"/>
        </meta>
        <text>
          <status value="generated"/><div xmlns="http://www.w3.org/1999/xhtml"><p><b>Generated Narrative with Details</b></p><p><b>id</b>: 1a513009-ec68-4ee8-b279-4cad6545c6ec</p><p><b>meta</b>: </p><p><b>identifier</b>: NHS111ABC</p><p><b>name</b>: NHS 111 Call Centre Chelmsford</p><p><b>address</b>: The call centre 2 Bank Road Chelmsford EX1 5RT </p></div>
        </text>
        <identifier>
          <system value="https://fhir.nhs.uk/Id/ods-organization-code"/>
          <value value="NHS111ABC"/>
        </identifier>
        <name value="NHS 111 Call Centre Chelmsford"/>
        <address>
          <line value="The call centre"/>
          <line value="2 Bank Road"/>
          <city value="Chelmsford"/>
          <district value="Essex"/>
          <postalCode value="EX1 5RT"/>
        </address>
      </Organization>
    </resource>
  </entry>
  <entry>
    <fullUrl value="urn:uuid:4d7c758f-55c7-41f1-961f-4ccd1ed9d036"/>
    <resource>
      <Organization>
        <id value="4d7c758f-55c7-41f1-961f-4ccd1ed9d036"/>
        <meta>
          <profile value="https://fhir.hl7.org.uk/STU3/StructureDefinition/CareConnect-Organization-1"/>
        </meta>
        <text>
          <status value="generated"/><div xmlns="http://www.w3.org/1999/xhtml"><p><b>Generated Narrative with Details</b></p><p><b>id</b>: 4d7c758f-55c7-41f1-961f-4ccd1ed9d036</p><p><b>meta</b>: </p><p><b>identifier</b>: AMB123</p><p><b>name</b>: East Chelmsford Ambulance Service</p></div>
        </text>
        <identifier>
          <system value="https://fhir.nhs.uk/Id/ods-organization-code"/>
          <value value="AMB123"/>
        </identifier>
        <name value="East Chelmsford Ambulance Service"/>
      </Organization>
    </resource>
  </entry>
  <entry>
    <fullUrl value="urn:uuid:a0ff2363-f00d-4542-9f6a-624e71513ebf"/>
    <resource>
      <Organization>
        <id value="a0ff2363-f00d-4542-9f6a-624e71513ebf"/>
        <meta>
          <profile value="https://fhir.hl7.org.uk/STU3/StructureDefinition/CareConnect-Organization-1"/>
        </meta>
        <text>
          <status value="generated"/><div xmlns="http://www.w3.org/1999/xhtml"><p><b>Generated Narrative with Details</b></p><p><b>id</b>: a0ff2363-f00d-4542-9f6a-624e71513ebf</p><p><b>meta</b>: </p><p><b>identifier</b>: SUR556</p><p><b>name</b>: The Surgery</p><p><b>address</b>: null null </p></div>
        </text>
        <identifier>
          <system value="https://fhir.nhs.uk/Id/ods-organization-code"/>
          <value value="SUR556"/>
        </identifier>
        <name value="The Surgery"/>
        <address>
          <line/>
          <line/>
          <city/>
          <district/>
          <postalCode/>
        </address>
      </Organization>
    </resource>
  </entry>
  <entry>
    <fullUrl value="urn:uuid:679091ff-f273-40fc-a560-44594b6454eb"/>
    <resource>
      <Consent>
        <id value="679091ff-f273-40fc-a560-44594b6454eb"/>
        <text>
          <status value="generated"/><div xmlns="http://www.w3.org/1999/xhtml"><p><b>Generated Narrative with Details</b></p><p><b>id</b>: 679091ff-f273-40fc-a560-44594b6454eb</p><p><b>status</b>: active</p><p><b>patient</b>: <a href="#backboneelement_e228e899-f437-4927-b5c5-4786dce9dc43">Generated Summary: unknown resource entry</a></p><p><b>purpose</b>: Consent given for electronic record sharing (Details: SNOMED CT code 425691002 = 'Consent given for electronic record sharing (finding)', stated as 'Consent given for electronic record sharing')</p></div>
        </text>
        <status value="active"/>
        <patient>
          <reference value="urn:uuid:e228e899-f437-4927-b5c5-4786dce9dc43"/>
        </patient>
        <purpose>
          <system value="http://snomed.info/sct"/>
          <code value="425691002"/>
          <display value="Consent given for electronic record sharing"/>
        </purpose>
      </Consent>
    </resource>
  </entry>
  <entry>
    <fullUrl value="urn:uuid:5885c08d-e1c9-43ff-ae1b-aedb38067908"/>
    <resource>
      <ReferralRequest>
        <id value="5885c08d-e1c9-43ff-ae1b-aedb38067908"/>
        <text>
          <status value="generated"/><div xmlns="http://www.w3.org/1999/xhtml"><p><b>Generated Narrative with Details</b></p><p><b>id</b>: 5885c08d-e1c9-43ff-ae1b-aedb38067908</p><p><b>status</b>: active</p><p><b>intent</b>: proposal</p><p><b>type</b>: Referral by Accident and Emergency <span style="background: LightGoldenRodYellow">(Details : {SNOMED CT code '397593002' = 'Referral by emergency medical admissions unit (procedure)', given as 'Referral by Accident and Emergency'})</span></p><p><b>priority</b>: urgent</p><p><b>serviceRequested</b>: Ambulance Request - Serious condition Cat R2 <span style="background: LightGoldenRodYellow">(Details : {urn:oid:2.16.840.1.113883.2.1.3.2.4.17.329 code 'R2' = 'R2', given as 'Ambulance Request - Serious condition Cat R2'})</span></p><p><b>subject</b>: <a href="#backboneelement_e228e899-f437-4927-b5c5-4786dce9dc43">Generated Summary: unknown resource entry</a></p><h3>Requesters</h3><table class="grid"><tr><td>-</td><td><b>Agent</b></td></tr><tr><td>*</td><td><a href="#backboneelement_2a1022dd-a998-41a1-9941-71a413ee9172">Mr Harry Parker. Generated Summary: unknown resource entry</a></td></tr></table><p><b>recipient</b>: <a href="#backboneelement_4d7c758f-55c7-41f1-961f-4ccd1ed9d036">East Chelmsford Ambulance Service. Generated Summary: unknown resource entry</a></p><p><b>reasonCode</b>: Blood loss - urgent care require <span style="background: LightGoldenRodYellow">(Details : {urn:oid:2.16.840.1.113883.2.1.3.2.4.17.414 code 'Dx009' = 'Dx009', given as 'Blood loss - urgent care require'})</span></p></div>
        </text>
        <status value="active"/>
        <intent value="proposal"/>
        <subject>
          <reference value="urn:uuid:e228e899-f437-4927-b5c5-4786dce9dc43"/>
        </subject>
        <priority value="urgent"/>
        <reasonCode>
          <coding>
            <system value="urn:oid:2.16.840.1.113883.2.1.3.2.4.17.414"/>
            <code value="Dx009"/>
            <display value="Blood loss - urgent care require"/>
          </coding>
        </reasonCode>
        <type>
          <coding>
            <system value="http://snomed.info/sct"/>
            <code value="397593002"/>
            <display value="Referral by Accident and Emergency"/>
          </coding>
        </type>
        <requester>
          <agent>
            <reference value="urn:uuid:2a1022dd-a998-41a1-9941-71a413ee9172"/>
            <display value="Mr Harry Parker"/>
          </agent>
        </requester>
        <recipient>
          <reference value="urn:uuid:4d7c758f-55c7-41f1-961f-4ccd1ed9d036"/>
          <display value="East Chelmsford Ambulance Service"/>
        </recipient>
        <serviceRequested>
          <coding>
            <code value="R2"/>
            <system value="urn:oid:2.16.840.1.113883.2.1.3.2.4.17.329"/>
            <display value="Ambulance Request - Serious condition Cat R2"/>
          </coding>
        </serviceRequested>
      </ReferralRequest>
    </resource>
  </entry>
  <entry>
    <fullUrl value="urn:uuid:6200f9ee-4d77-4d0f-8da1-b0bc4db0000d"/>
    <resource>
      <Location>
        <id value="6200f9ee-4d77-4d0f-8da1-b0bc4db0000d"/>
        <text>
          <status value="generated"/><div xmlns="http://www.w3.org/1999/xhtml"><p><b>Generated Narrative with Details</b></p><p><b>id</b>: 6200f9ee-4d77-4d0f-8da1-b0bc4db0000d</p><p><b>status</b>: active</p><p><b>description</b>: The actual location is in the garden, round the back of the house</p><p><b>address</b>: null </p></div>
        </text>
        <status value="active"/>
        <address>
          <line/>
          <city/>
          <postalCode/>
          <country/>
        </address>
        <description value="The actual location is in the garden, round the back of the house"/>
      </Location>
    </resource>
  </entry>
</Bundle>