<?xml version="1.0" encoding="UTF-8"?>

<Bundle xmlns="http://hl7.org/fhir">
  <id value="orur01"/>
  <identifier>
    <value value="14038913245354"/>
  </identifier>
  <type value="message"/>
  <entry>
    <fullUrl value="urn:oid:e4e19085-ce42-4346-9a47-0e379292974b"/>
    <resource>
      <MessageHeader>
        <id value="e4e19085-ce42-4346-9a47-0e379292974b"/>
        <text>
          <status value="generated"/><div xmlns="http://www.w3.org/1999/xhtml"><p><b>Generated Narrative with Details</b></p><p><b>id</b>: e4e19085-ce42-4346-9a47-0e379292974b</p><p><b>event</b>: ORU^R01 (Details: [not stated] code ORU^R01 = 'ORU^R01', stated as 'ORU^R01')</p><h3>Destinations</h3><table class="grid"><tr><td>-</td><td><b>Name</b></td></tr><tr><td>*</td><td>ROUTE</td></tr></table><p><b>sender</b>: RCB</p><p><b>timestamp</b>: 21 May 2018, 13:45:12</p><p><b>focus</b>: <a href="urn:oid:e0956326-29b1-4218-a2a0-8a457b7a4653">urn:oid:e0956326-29b1-4218-a2a0-8a457b7a4653</a></p></div>
        </text>
        <event>
          <code value="ORU^R01"/>
          <display value="ORU^R01"/>
        </event>
        <destination>
          <name value="ROUTE"/>
        </destination>
        <sender>
          <identifier>
            <system value="https://fhir.nhs.uk/Id/ods-organization-code"/>
            <value value="RCB"/>
          </identifier>
          <display value="RCB"/>
        </sender>
        <timestamp value="2018-05-21T13:45:12.000+01:00"/>
        <focus>
          <reference value="urn:oid:e0956326-29b1-4218-a2a0-8a457b7a4653"/>
        </focus>
      </MessageHeader>
    </resource>
  </entry>
  <entry>
    <fullUrl value="urn:oid:e0956326-29b1-4218-a2a0-8a457b7a4653"/>
    <resource>
      <DiagnosticReport>
        <id value="e0956326-29b1-4218-a2a0-8a457b7a4653"/>
        <text>
          <status value="generated"/><div xmlns="http://www.w3.org/1999/xhtml"><p><b>Generated Narrative with Details</b></p><p><b>id</b>: e0956326-29b1-4218-a2a0-8a457b7a4653</p><p><b>identifier</b>: 108512374</p><p><b>status</b>: ?</p><p><b>code</b>: Vital Signs <span style="background: LightGoldenRodYellow">(Details : {SNOMED CT code '118227000' = 'Vital signs finding', given as 'Vital Signs'})</span></p><p><b>subject</b>: <a href="urn:oid:7dd62c99-357d-4da9-81db-70b26f35c95e">urn:oid:7dd62c99-357d-4da9-81db-70b26f35c95e</a></p><p><b>effective</b>: 21 May 2018, 13:45:05 --&gt; (ongoing)</p><p><b>result</b>: </p><ul><li><a href="urn:oid:42bf5804-4b10-424c-a880-6b0321137b9a">urn:oid:42bf5804-4b10-424c-a880-6b0321137b9a</a></li><li><a href="urn:oid:52bb8b6e-a554-42f9-964e-4a8cda265d41">urn:oid:52bb8b6e-a554-42f9-964e-4a8cda265d41</a></li><li><a href="urn:oid:0474a71e-2ff5-4405-a859-f4f261886de6">urn:oid:0474a71e-2ff5-4405-a859-f4f261886de6</a></li><li><a href="urn:oid:c648924f-cc6c-46be-93dc-9115d1e91c0c">urn:oid:c648924f-cc6c-46be-93dc-9115d1e91c0c</a></li><li><a href="urn:oid:952d3ab9-7223-4bcb-be62-1480bbede61c">urn:oid:952d3ab9-7223-4bcb-be62-1480bbede61c</a></li><li><a href="urn:oid:57dbba71-56b5-4fca-affe-bb3fa673381f">urn:oid:57dbba71-56b5-4fca-affe-bb3fa673381f</a></li></ul></div>
        </text>
        <identifier>
          <value value="108512374"/>
        </identifier>
        <status value="?"/>
        <code>
          <coding>
            <system value="http://snomed.info/sct"/>
            <code value="118227000"/>
            <display value="Vital Signs"/>
          </coding>
        </code>
        <subject>
          <reference value="urn:oid:7dd62c99-357d-4da9-81db-70b26f35c95e"/>
        </subject>
        <effectivePeriod>
          <start value="2018-05-21T13:45:05+01:00"/>
        </effectivePeriod>
        <result>
          <reference value="urn:oid:42bf5804-4b10-424c-a880-6b0321137b9a"/>
        </result>
        <result>
          <reference value="urn:oid:52bb8b6e-a554-42f9-964e-4a8cda265d41"/>
        </result>
        <result>
          <reference value="urn:oid:0474a71e-2ff5-4405-a859-f4f261886de6"/>
        </result>
        <result>
          <reference value="urn:oid:c648924f-cc6c-46be-93dc-9115d1e91c0c"/>
        </result>
        <result>
          <reference value="urn:oid:952d3ab9-7223-4bcb-be62-1480bbede61c"/>
        </result>
        <result>
          <reference value="urn:oid:57dbba71-56b5-4fca-affe-bb3fa673381f"/>
        </result>
      </DiagnosticReport>
    </resource>
  </entry>
  <entry>
    <fullUrl value="urn:oid:42bf5804-4b10-424c-a880-6b0321137b9a"/>
    <resource>
      <Observation>
        <id value="42bf5804-4b10-424c-a880-6b0321137b9a"/>
        <text>
          <status value="generated"/><div xmlns="http://www.w3.org/1999/xhtml"><p><b>Generated Narrative with Details</b></p><p><b>id</b>: 42bf5804-4b10-424c-a880-6b0321137b9a</p><p><b>status</b>: final</p><p><b>code</b>: Heart Rate <span style="background: LightGoldenRodYellow">(Details : {SNOMED CT code '364075005' = 'Heart rate', given as 'Heart Rate'})</span></p><p><b>subject</b>: <a href="urn:oid:7dd62c99-357d-4da9-81db-70b26f35c95e">urn:oid:7dd62c99-357d-4da9-81db-70b26f35c95e</a></p><p><b>effective</b>: 11 May 2018, 22:05:25</p><p><b>value</b>: 73.0 /min</p><h3>ReferenceRanges</h3><table class="grid"><tr><td>-</td><td><b>Text</b></td></tr><tr><td>*</td><td>60-100</td></tr></table></div>
        </text>
        <status value="final"/>
        <code>
          <coding>
            <system value="http://snomed.info/sct"/>
            <code value="364075005"/>
            <display value="Heart Rate"/>
          </coding>
        </code>
        <subject>
          <reference value="urn:oid:7dd62c99-357d-4da9-81db-70b26f35c95e"/>
        </subject>
        <effectiveDateTime value="2018-05-11T22:05:25+01:00"/>
        <valueQuantity>
          <value value="73.0"/>
          <unit value="/min"/>
        </valueQuantity>
        <referenceRange>
          <text value="60-100"/>
        </referenceRange>
      </Observation>
    </resource>
  </entry>
  <entry>
    <fullUrl value="urn:oid:52bb8b6e-a554-42f9-964e-4a8cda265d41"/>
    <resource>
      <Observation>
        <id value="52bb8b6e-a554-42f9-964e-4a8cda265d41"/>
        <text>
          <status value="generated"/><div xmlns="http://www.w3.org/1999/xhtml"><p><b>Generated Narrative with Details</b></p><p><b>id</b>: 52bb8b6e-a554-42f9-964e-4a8cda265d41</p><p><b>status</b>: final</p><p><b>code</b>: Blood oxygen saturation <span style="background: LightGoldenRodYellow">(Details : {SNOMED CT code '103228002' = 'Hemoglobin saturation with oxygen', given as 'Blood oxygen saturation'})</span></p><p><b>subject</b>: <a href="urn:oid:7dd62c99-357d-4da9-81db-70b26f35c95e">urn:oid:7dd62c99-357d-4da9-81db-70b26f35c95e</a></p><p><b>effective</b>: 11 May 2018, 22:05:25</p><p><b>value</b>: 98.0 %</p><h3>ReferenceRanges</h3><table class="grid"><tr><td>-</td><td><b>Text</b></td></tr><tr><td>*</td><td>94-100</td></tr></table></div>
        </text>
        <status value="final"/>
        <code>
          <coding>
            <system value="http://snomed.info/sct"/>
            <code value="103228002"/>
            <display value="Blood oxygen saturation"/>
          </coding>
        </code>
        <subject>
          <reference value="urn:oid:7dd62c99-357d-4da9-81db-70b26f35c95e"/>
        </subject>
        <effectiveDateTime value="2018-05-11T22:05:25+01:00"/>
        <valueQuantity>
          <value value="98.0"/>
          <unit value="%"/>
        </valueQuantity>
        <referenceRange>
          <text value="94-100"/>
        </referenceRange>
      </Observation>
    </resource>
  </entry>
  <entry>
    <fullUrl value="urn:oid:0474a71e-2ff5-4405-a859-f4f261886de6"/>
    <resource>
      <Observation>
        <id value="0474a71e-2ff5-4405-a859-f4f261886de6"/>
        <text>
          <status value="generated"/><div xmlns="http://www.w3.org/1999/xhtml"><p><b>Generated Narrative with Details</b></p><p><b>id</b>: 0474a71e-2ff5-4405-a859-f4f261886de6</p><p><b>status</b>: final</p><p><b>code</b>: Breathing room air <span style="background: LightGoldenRodYellow">(Details : {SNOMED CT code '722742002' = 'Breathing room air (finding)', given as 'Breathing room air'})</span></p><p><b>subject</b>: <a href="urn:oid:7dd62c99-357d-4da9-81db-70b26f35c95e">urn:oid:7dd62c99-357d-4da9-81db-70b26f35c95e</a></p></div>
        </text>
        <status value="final"/>
        <code>
          <coding>
            <system value="http://snomed.info/sct"/>
            <code value="722742002"/>
            <display value="Breathing room air"/>
          </coding>
        </code>
        <subject>
          <reference value="urn:oid:7dd62c99-357d-4da9-81db-70b26f35c95e"/>
        </subject>
      </Observation>
    </resource>
  </entry>
  <entry>
    <fullUrl value="urn:oid:c648924f-cc6c-46be-93dc-9115d1e91c0c"/>
    <resource>
      <Observation>
        <id value="c648924f-cc6c-46be-93dc-9115d1e91c0c"/>
        <text>
          <status value="generated"/><div xmlns="http://www.w3.org/1999/xhtml"><p><b>Generated Narrative with Details</b></p><p><b>id</b>: c648924f-cc6c-46be-93dc-9115d1e91c0c</p><p><b>status</b>: final</p><p><b>code</b>: ACVPU (Alert Confusion Voice Pain Unresponsive) scale score <span style="background: LightGoldenRodYellow">(Details : {SNOMED CT code '1104441000000107' = '1104441000000107', given as 'ACVPU (Alert Confusion Voice Pain Unresponsive) scale score'})</span></p><p><b>subject</b>: <a href="urn:oid:7dd62c99-357d-4da9-81db-70b26f35c95e">urn:oid:7dd62c99-357d-4da9-81db-70b26f35c95e</a></p><p><b>value</b>: Mentally alert <span style="background: LightGoldenRodYellow">(Details : {SNOMED CT code '248234008' = 'Mentally alert', given as 'Mentally alert'})</span></p></div>
        </text>
        <status value="final"/>
        <code>
          <coding>
            <system value="http://snomed.info/sct"/>
            <code value="1104441000000107"/>
            <display value="ACVPU (Alert Confusion Voice Pain Unresponsive) scale score"/>
          </coding>
        </code>
        <subject>
          <reference value="urn:oid:7dd62c99-357d-4da9-81db-70b26f35c95e"/>
        </subject>
        <valueCodeableConcept>
          <coding>
            <system value="http://snomed.info/sct"/>
            <code value="248234008"/>
            <display value="Mentally alert"/>
          </coding>
        </valueCodeableConcept>
      </Observation>
    </resource>
  </entry>
  <entry>
    <fullUrl value="urn:oid:952d3ab9-7223-4bcb-be62-1480bbede61c"/>
    <resource>
      <Observation>
        <id value="952d3ab9-7223-4bcb-be62-1480bbede61c"/>
        <text>
          <status value="generated"/><div xmlns="http://www.w3.org/1999/xhtml"><p><b>Generated Narrative with Details</b></p><p><b>id</b>: 952d3ab9-7223-4bcb-be62-1480bbede61c</p><p><b>status</b>: final</p><p><b>code</b>: Respiratory rate <span style="background: LightGoldenRodYellow">(Details : {SNOMED CT code '86290005' = 'Respiratory rate', given as 'Respiratory rate'})</span></p><p><b>subject</b>: <a href="urn:oid:7dd62c99-357d-4da9-81db-70b26f35c95e">urn:oid:7dd62c99-357d-4da9-81db-70b26f35c95e</a></p><p><b>value</b>: 20.0 /min</p></div>
        </text>
        <status value="final"/>
        <code>
          <coding>
            <system value="http://snomed.info/sct"/>
            <code value="86290005"/>
            <display value="Respiratory rate"/>
          </coding>
        </code>
        <subject>
          <reference value="urn:oid:7dd62c99-357d-4da9-81db-70b26f35c95e"/>
        </subject>
        <valueQuantity>
          <value value="20.0"/>
          <unit value="/min"/>
        </valueQuantity>
      </Observation>
    </resource>
  </entry>
  <entry>
    <fullUrl value="urn:oid:57dbba71-56b5-4fca-affe-bb3fa673381f"/>
    <resource>
      <Observation>
        <id value="57dbba71-56b5-4fca-affe-bb3fa673381f"/>
        <text>
          <status value="generated"/><div xmlns="http://www.w3.org/1999/xhtml"><p><b>Generated Narrative with Details</b></p><p><b>id</b>: 57dbba71-56b5-4fca-affe-bb3fa673381f</p><p><b>status</b>: final</p><p><b>code</b>: Blood Pressure <span style="background: LightGoldenRodYellow">(Details : {SNOMED CT code '75367002' = 'Blood pressure', given as 'Blood Pressure'})</span></p><p><b>subject</b>: <a href="urn:oid:7dd62c99-357d-4da9-81db-70b26f35c95e">urn:oid:7dd62c99-357d-4da9-81db-70b26f35c95e</a></p><blockquote><p><b>component</b></p><p><b>code</b>: Systolic arterial pressure <span style="background: LightGoldenRodYellow">(Details : {SNOMED CT code '72313002' = 'Systolic arterial pressure', given as 'Systolic arterial pressure'})</span></p><p><b>value</b>: 132.0 mm[Hg]</p></blockquote><blockquote><p><b>component</b></p><p><b>code</b>: Diastolic arterial pressure <span style="background: LightGoldenRodYellow">(Details : {SNOMED CT code '1091811000000102' = '1091811000000102', given as 'Diastolic arterial pressure'})</span></p><p><b>value</b>: 86.0 mm[Hg]</p></blockquote></div>
        </text>
        <status value="final"/>
        <code>
          <coding>
            <system value="http://snomed.info/sct"/>
            <code value="75367002"/>
            <display value="Blood Pressure"/>
          </coding>
        </code>
        <subject>
          <reference value="urn:oid:7dd62c99-357d-4da9-81db-70b26f35c95e"/>
        </subject>
        <component>
          <code>
            <coding>
              <system value="http://snomed.info/sct"/>
              <code value="72313002"/>
              <display value="Systolic arterial pressure"/>
            </coding>
          </code>
          <valueQuantity>
            <value value="132.0"/>
            <unit value="mm[Hg]"/>
          </valueQuantity>
        </component>
        <component>
          <code>
            <coding>
              <system value="http://snomed.info/sct"/>
              <code value="1091811000000102"/>
              <display value="Diastolic arterial pressure"/>
            </coding>
          </code>
          <valueQuantity>
            <value value="86.0"/>
            <unit value="mm[Hg]"/>
          </valueQuantity>
        </component>
      </Observation>
    </resource>
  </entry>
  <entry>
    <fullUrl value="urn:oid:7dd62c99-357d-4da9-81db-70b26f35c95e"/>
    <resource>
      <Patient>
        <id value="7dd62c99-357d-4da9-81db-70b26f35c95e"/>
        <text>
          <status value="generated"/><div xmlns="http://www.w3.org/1999/xhtml"><p><b>Generated Narrative with Details</b></p><p><b>id</b>: 7dd62c99-357d-4da9-81db-70b26f35c95e</p><p><b>identifier</b>: 3333333333</p><p><b>name</b>: FREDRICA SMITH </p><p><b>telecom</b>: ph: +441234567890(HOME)</p><p><b>gender</b>: female</p><p><b>birthDate</b>: 1965-12-13</p><p><b>address</b>: MALTON YO32 5TT (HOME)</p><p><b>generalPractitioner</b>: Dr Gregory Townley</p><p><b>managingOrganization</b>: MALTON GP PRACTICE</p></div>
        </text>
        <identifier>
          <extension url="https://fhir.hl7.org.uk/STU3/StructureDefinition/Extension-CareConnect-NHSNumberVerificationStatus-1">
            <valueCodeableConcept>
              <coding>
                <system value="https://fhir.hl7.org.uk/STU3/CodeSystem/CareConnect-NHSNumberVerificationStatus-1"/>
                <code value="01"/>
              </coding>
            </valueCodeableConcept>
          </extension>
          <system value="https://fhir.nhs.uk/Id/nhs-number"/>
          <value value="3333333333"/>
        </identifier>
        <name>
          <family value="SMITH"/>
          <given value="FREDRICA"/>
          <prefix value="MRS"/>
        </name>
        <telecom>
          <system value="phone"/>
          <value value="+441234567890"/>
          <use value="home"/>
        </telecom>
        <gender value="female"/>
        <birthDate value="1965-12-13"/>
        <address>
          <use value="home"/>
          <city value="MALTON"/>
          <district value="NORTH YORKSHIRE"/>
          <postalCode value="YO32 5TT"/>
        </address>
        <generalPractitioner>
          <identifier>
            <system value="https://fhir.hl7.org.uk/Id/gmc-number"/>
            <value value="G5612908"/>
          </identifier>
          <display value="Dr Gregory Townley"/>
        </generalPractitioner>
        <managingOrganization>
          <identifier>
            <system value="https://fhir.nhs.uk/Id/ods-organization-code"/>
            <value value="Y06601"/>
          </identifier>
          <display value="MALTON GP PRACTICE"/>
        </managingOrganization>
      </Patient>
    </resource>
  </entry>
</Bundle>