<?xml version="1.0" encoding="UTF-8"?>

<Bundle xmlns="http://hl7.org/fhir">
  <id value="adta02"/>
  <identifier>
    <value value="13403891320453338079"/>
  </identifier>
  <type value="message"/>
  <entry>
    <fullUrl value="urn:oid:8f6eb68a-f312-4e3b-95eb-640f0dcc3448"/>
    <resource>
      <MessageHeader>
        <id value="8f6eb68a-f312-4e3b-95eb-640f0dcc3448"/>
        <text>
          <status value="generated"/><div xmlns="http://www.w3.org/1999/xhtml"><p><b>Generated Narrative with Details</b></p><p><b>id</b>: 8f6eb68a-f312-4e3b-95eb-640f0dcc3448</p><p><b>event</b>: ADT^A02 (Details: [not stated] code ADT^A02 = 'ADT^A02', stated as 'ADT^A02')</p><h3>Destinations</h3><table class="grid"><tr><td>-</td><td><b>Name</b></td></tr><tr><td>*</td><td>ROUTE</td></tr></table><p><b>sender</b>: RCB</p><p><b>timestamp</b>: 29-Nov-2010 13:15:00</p><p><b>focus</b>: <a href="urn:oid:ba869b7c-ad34-4a8b-a0d2-53e0627e6c84">urn:oid:ba869b7c-ad34-4a8b-a0d2-53e0627e6c84</a></p></div>
        </text>
        <event>
          <code value="ADT^A02"/>
          <display value="ADT^A02"/>
        </event>
        <destination>
          <name value="ROUTE"/>
        </destination>
        <sender>
          <identifier>
            <system value="https://fhir.nhs.uk/Id/ods-organization-code"/>
            <value value="RCB"/>
          </identifier>
          <display value="RCB"/>
        </sender>
        <timestamp value="2010-11-29T13:15:00.000+00:00"/>
        <focus>
          <reference value="urn:oid:ba869b7c-ad34-4a8b-a0d2-53e0627e6c84"/>
        </focus>
      </MessageHeader>
    </resource>
  </entry>
  <entry>
    <fullUrl value="urn:oid:ba869b7c-ad34-4a8b-a0d2-53e0627e6c84"/>
    <resource>
      <Encounter>
        <id value="ba869b7c-ad34-4a8b-a0d2-53e0627e6c84"/>
        <text>
          <status value="generated"/><div xmlns="http://www.w3.org/1999/xhtml"><p><b>Generated Narrative with Details</b></p><p><b>id</b>: ba869b7c-ad34-4a8b-a0d2-53e0627e6c84</p><p><b>identifier</b>: 1223</p><p><b>status</b>: in-progress</p><p><b>class</b>: inpatient encounter (Details: http://hl7.org/fhir/v3/ActCode code IMP = 'inpatient encounter', stated as 'inpatient encounter')</p><p><b>type</b>: 21 <span style="background: LightGoldenRodYellow">(Details : {https://fhir.nhs.uk/R4/CodeSystem/UKCore-AdmissionMethod code '21' = '21)</span>, 300 <span style="background: LightGoldenRodYellow">(Details : {http://terminology.hl7.org.uk/CodeSystem/v2-0069 code '300' = '300)</span></p><p><b>subject</b>: <a href="urn:oid:14e04822-9fd2-4343-8b27-b00d80588772">urn:oid:14e04822-9fd2-4343-8b27-b00d80588772</a></p><blockquote><p><b>participant</b></p><p><b>type</b>: attender <span style="background: LightGoldenRodYellow">(Details : {http://hl7.org/fhir/v3/ParticipationType code 'ATND' = 'attender', given as 'attender'})</span></p><p><b>individual</b>: Dr Samuel Darwin</p></blockquote><blockquote><p><b>participant</b></p><p><b>type</b>: admitter <span style="background: LightGoldenRodYellow">(Details : {http://hl7.org/fhir/v3/ParticipationType code 'ADM' = 'admitter', given as 'admitter'})</span></p><p><b>individual</b>: Dr Samuel Darwin</p></blockquote><blockquote><p><b>participant</b></p><p><b>type</b>: consultant <span style="background: LightGoldenRodYellow">(Details : {http://hl7.org/fhir/v3/ParticipationType code 'CON' = 'consultant', given as 'consultant'})</span></p><p><b>individual</b>: Dr Samuel Darwin</p></blockquote><p><b>period</b>: 29-Nov-2010 11:00:00 --&gt; (ongoing)</p><h3>Hospitalizations</h3><table class="grid"><tr><td>-</td><td><b>AdmitSource</b></td></tr><tr><td>*</td><td>51 <span style="background: LightGoldenRodYellow">(Details : {https://fhir.nhs.uk/R4/CodeSystem/UKCore-SourceOfAdmission code '51' = '51)</span></td></tr></table><blockquote><p><b>location</b></p><p><b>location</b>: <a href="urn:oid:6297eed2-7dcb-48c2-8340-738308a1999d">RCB55-RECOVERYWARD</a></p><p><b>status</b>: active</p></blockquote><blockquote><p><b>location</b></p><p><b>location</b>: <a href="urn:oid:7e72be04-056b-4179-8ab1-4b5043fd0eb6">RCB55-SURGWARD</a></p><p><b>status</b>: completed</p></blockquote></div>
        </text>
        <identifier>
          <system value="http://terminology.hl7.org/CodeSystem/v2-0203"/>
          <value value="1223"/>
        </identifier>
        <status value="in-progress"/>
        <class>
          <system value="http://hl7.org/fhir/v3/ActCode"/>
          <code value="IMP"/>
          <display value="inpatient encounter"/>
        </class>
        <type>
          <coding>
            <system value="https://fhir.nhs.uk/R4/CodeSystem/UKCore-AdmissionMethod"/>
            <code value="21"/>
          </coding>
        </type>
        <type>
          <coding>
            <system value="http://terminology.hl7.org.uk/CodeSystem/v2-0069"/>
            <code value="300"/>
          </coding>
        </type>
        <subject>
          <reference value="urn:oid:14e04822-9fd2-4343-8b27-b00d80588772"/>
        </subject>
        <participant>
          <type>
            <coding>
              <system value="http://hl7.org/fhir/v3/ParticipationType"/>
              <code value="ATND"/>
              <display value="attender"/>
            </coding>
          </type>
          <individual>
            <identifier>
              <system value="https://fhir.hl7.org.uk/Id/gmc-number"/>
              <value value="C3456789"/>
            </identifier>
            <display value="Dr Samuel Darwin"/>
          </individual>
        </participant>
        <participant>
          <type>
            <coding>
              <system value="http://hl7.org/fhir/v3/ParticipationType"/>
              <code value="ADM"/>
              <display value="admitter"/>
            </coding>
          </type>
          <individual>
            <identifier>
              <system value="https://fhir.hl7.org.uk/Id/gmc-number"/>
              <value value="C3456789"/>
            </identifier>
            <display value="Dr Samuel Darwin"/>
          </individual>
        </participant>
        <participant>
          <type>
            <coding>
              <system value="http://hl7.org/fhir/v3/ParticipationType"/>
              <code value="CON"/>
              <display value="consultant"/>
            </coding>
          </type>
          <individual>
            <identifier>
              <system value="https://fhir.hl7.org.uk/Id/gmc-number"/>
              <value value="C3456789"/>
            </identifier>
            <display value="Dr Samuel Darwin"/>
          </individual>
        </participant>
        <period>
          <start value="2010-11-29T11:00:00+00:00"/>
        </period>
        <hospitalization>
          <admitSource>
            <coding>
              <system value="https://fhir.nhs.uk/R4/CodeSystem/UKCore-SourceOfAdmission"/>
              <code value="51"/>
            </coding>
          </admitSource>
        </hospitalization>
        <location>
          <location>
            <reference value="urn:oid:6297eed2-7dcb-48c2-8340-738308a1999d"/>
            <display value="RCB55-RECOVERYWARD"/>
          </location>
          <status value="active"/>
        </location>
        <location>
          <location>
            <reference value="urn:oid:7e72be04-056b-4179-8ab1-4b5043fd0eb6"/>
            <display value="RCB55-SURGWARD"/>
          </location>
          <status value="completed"/>
        </location>
      </Encounter>
    </resource>
  </entry>
  <entry>
    <fullUrl value="urn:oid:14e04822-9fd2-4343-8b27-b00d80588772"/>
    <resource>
      <Patient>
        <id value="14e04822-9fd2-4343-8b27-b00d80588772"/>
        <text>
          <status value="generated"/><div xmlns="http://www.w3.org/1999/xhtml"><p><b>Generated Narrative with Details</b></p><p><b>id</b>: 14e04822-9fd2-4343-8b27-b00d80588772</p><p><b>identifier</b>: 3333333333</p><p><b>name</b>: FREDRICA SMITH </p><p><b>telecom</b>: ph: +441234567890(HOME)</p><p><b>gender</b>: female</p><p><b>birthDate</b>: 1965-12-13</p><p><b>address</b>: MALTON YO32 5TT (HOME)</p><p><b>generalPractitioner</b>: Dr Gregory Townley</p><p><b>managingOrganization</b>: MALTON GP PRACTICE</p></div>
        </text>
        <identifier>
          <extension url="https://fhir.hl7.org.uk/STU3/StructureDefinition/Extension-CareConnect-NHSNumberVerificationStatus-1">
            <valueCodeableConcept>
              <coding>
                <system value="https://fhir.hl7.org.uk/STU3/CodeSystem/CareConnect-NHSNumberVerificationStatus-1"/>
                <code value="01"/>
              </coding>
            </valueCodeableConcept>
          </extension>
          <system value="https://fhir.nhs.uk/Id/nhs-number"/>
          <value value="3333333333"/>
        </identifier>
        <name>
          <family value="SMITH"/>
          <given value="FREDRICA"/>
          <prefix value="MRS"/>
        </name>
        <telecom>
          <system value="phone"/>
          <value value="+441234567890"/>
          <use value="home"/>
        </telecom>
        <gender value="female"/>
        <birthDate value="1965-12-13"/>
        <address>
          <use value="home"/>
          <city value="MALTON"/>
          <district value="NORTH YORKSHIRE"/>
          <postalCode value="YO32 5TT"/>
        </address>
        <generalPractitioner>
          <identifier>
            <system value="https://fhir.hl7.org.uk/Id/gmc-number"/>
            <value value="G5612908"/>
          </identifier>
          <display value="Dr Gregory Townley"/>
        </generalPractitioner>
        <managingOrganization>
          <identifier>
            <system value="https://fhir.nhs.uk/Id/ods-organization-code"/>
            <value value="Y06601"/>
          </identifier>
          <display value="MALTON GP PRACTICE"/>
        </managingOrganization>
      </Patient>
    </resource>
  </entry>
  <entry>
    <fullUrl value="urn:oid:6297eed2-7dcb-48c2-8340-738308a1999d"/>
    <resource>
      <Location>
        <id value="6297eed2-7dcb-48c2-8340-738308a1999d"/>
        <text>
          <status value="generated"/><div xmlns="http://www.w3.org/1999/xhtml"><p><b>Generated Narrative with Details</b></p><p><b>id</b>: 6297eed2-7dcb-48c2-8340-738308a1999d</p><p><b>identifier</b>: RCB55-RECOVERYWARD</p><p><b>name</b>: RCB55-RECOVERYWARD</p><p><b>managingOrganization</b>: </p><p><b>partOf</b>: </p></div>
        </text>
        <identifier>
          <system value="htttps://fhir.xgenome.co.uk/Id/Ward"/>
          <value value="RCB55-RECOVERYWARD"/>
        </identifier>
        <name value="RCB55-RECOVERYWARD"/>
        <managingOrganization>
          <identifier>
            <system value="https://fhir.nhs.uk/Id/ods-organization-code"/>
            <value value="West Wing"/>
          </identifier>
        </managingOrganization>
        <partOf>
          <identifier>
            <system value="https://fhir.nhs.uk/Id/ods-site-code"/>
            <value value="RCB55"/>
          </identifier>
        </partOf>
      </Location>
    </resource>
  </entry>
  <entry>
    <fullUrl value="urn:oid:7e72be04-056b-4179-8ab1-4b5043fd0eb6"/>
    <resource>
      <Location>
        <id value="7e72be04-056b-4179-8ab1-4b5043fd0eb6"/>
        <text>
          <status value="generated"/><div xmlns="http://www.w3.org/1999/xhtml"><p><b>Generated Narrative with Details</b></p><p><b>id</b>: 7e72be04-056b-4179-8ab1-4b5043fd0eb6</p><p><b>identifier</b>: RCB55-SURGWARD</p><p><b>name</b>: RCB55-SURGWARD</p><p><b>managingOrganization</b>: </p><p><b>partOf</b>: </p></div>
        </text>
        <identifier>
          <system value="htttps://fhir.xgenome.co.uk/Id/Ward"/>
          <value value="RCB55-SURGWARD"/>
        </identifier>
        <name value="RCB55-SURGWARD"/>
        <managingOrganization>
          <identifier>
            <system value="https://fhir.nhs.uk/Id/ods-organization-code"/>
            <value value="West Wing"/>
          </identifier>
        </managingOrganization>
        <partOf>
          <identifier>
            <system value="https://fhir.nhs.uk/Id/ods-site-code"/>
            <value value="RCB55"/>
          </identifier>
        </partOf>
      </Location>
    </resource>
  </entry>
</Bundle>